rt,trial_type,trial_index,trial_number,time_elapsed,random_id,participant_id,technical_issues,response,stimulus,trial_phase,is_repeat,test_type,correct,old_image,new_image,correct_position,file_name,age,gender,memory_experiment_experience,task_guess,technical_issues_question,participant_is_group_member
NA,image-keyboard-response,5,1,16454,p0njrbtzmo2,wolf,No,null,stimuli/organized/STATE/USED/Sbriefcase1.jpg,memory,FALSE,state,TRUE,NA,NA,NA,/Users/martincz/GitHub/COGS119/group_wi26_massive_memory/analysis/../data/raw_data/p0njrbtzmo2_1772139328798.csv,20,female,yes,Testing my recall ability,No,FALSE
NA,image-keyboard-response,7,2,20460,p0njrbtzmo2,wolf,No,null,stimuli/organized/STATE/USED/Sscanner2.JPG,memory,FALSE,state,TRUE,NA,NA,NA,/Users/martincz/GitHub/COGS119/group_wi26_massive_memory/analysis/../data/raw_data/p0njrbtzmo2_1772139328798.csv,20,female,yes,Testing my recall ability,No,FALSE
NA,image-keyboard-response,9,3,24467,p0njrbtzmo2,wolf,No,null,stimuli/organized/STATE/USED/Seggs2.jpg,memory,FALSE,state,TRUE,NA,NA,NA,/Users/martincz/GitHub/COGS119/group_wi26_massive_memory/analysis/../data/raw_data/p0njrbtzmo2_1772139328798.csv,20,female,yes,Testing my recall ability,No,FALSE
NA,image-keyboard-response,11,4,28474,p0njrbtzmo2,wolf,No,null,stimuli/organized/STATE/USED/Spie2.JPG,memory,FALSE,state,TRUE,NA,NA,NA,/Users/martincz/GitHub/COGS119/group_wi26_massive_memory/analysis/../data/raw_data/p0njrbtzmo2_1772139328798.csv,20,female,yes,Testing my recall ability,No,FALSE
NA,image-keyboard-response,13,5,32480,p0njrbtzmo2,wolf,No,null,stimuli/organized/STATE/USED/Scoffeemaker2.JPG,memory,FALSE,state,TRUE,NA,NA,NA,/Users/martincz/GitHub/COGS119/group_wi26_massive_memory/analysis/../data/raw_data/p0njrbtzmo2_1772139328798.csv,20,female,yes,Testing my recall ability,No,FALSE
NA,image-keyboard-response,15,6,36486,p0njrbtzmo2,wolf,No,null,stimuli/organized/EXEMPLAR/USED/Eframe1.jpg,memory,FALSE,exemplar,TRUE,NA,NA,NA,/Users/martincz/GitHub/COGS119/group_wi26_massive_memory/analysis/../data/raw_data/p0njrbtzmo2_1772139328798.csv,20,female,yes,Testing my recall ability,No,FALSE
NA,image-keyboard-response,17,7,40493,p0njrbtzmo2,wolf,No,null,stimuli/organized/STATE/USED/Sflask2.jpg,memory,FALSE,state,TRUE,NA,NA,NA,/Users/martincz/GitHub/COGS119/group_wi26_massive_memory/analysis/../data/raw_data/p0njrbtzmo2_1772139328798.csv,20,female,yes,Testing my recall ability,No,FALSE
NA,image-keyboard-response,19,8,44500,p0njrbtzmo2,wolf,No,null,stimuli/organized/Novel pairs (tested)/n16bhammer.jpg,memory,FALSE,novel,TRUE,NA,NA,NA,/Users/martincz/GitHub/COGS119/group_wi26_massive_memory/analysis/../data/raw_data/p0njrbtzmo2_1772139328798.csv,20,female,yes,Testing my recall ability,No,FALSE
NA,image-keyboard-response,21,9,48507,p0njrbtzmo2,wolf,No,null,stimuli/organized/EXEMPLAR/USED/Egame2.jpg,memory,FALSE,exemplar,TRUE,NA,NA,NA,/Users/martincz/GitHub/COGS119/group_wi26_massive_memory/analysis/../data/raw_data/p0njrbtzmo2_1772139328798.csv,20,female,yes,Testing my recall ability,No,FALSE
NA,image-keyboard-response,23,10,52514,p0njrbtzmo2,wolf,No,null,stimuli/organized/STATE/USED/Sbabytoy2.JPG,memory,FALSE,state,TRUE,NA,NA,NA,/Users/martincz/GitHub/COGS119/group_wi26_massive_memory/analysis/../data/raw_data/p0njrbtzmo2_1772139328798.csv,20,female,yes,Testing my recall ability,No,FALSE
NA,image-keyboard-response,25,11,56521,p0njrbtzmo2,wolf,No,null,stimuli/organized/EXEMPLAR/USED/Ebasket1.jpg,memory,FALSE,exemplar,TRUE,NA,NA,NA,/Users/martincz/GitHub/COGS119/group_wi26_massive_memory/analysis/../data/raw_data/p0njrbtzmo2_1772139328798.csv,20,female,yes,Testing my recall ability,No,FALSE
NA,image-keyboard-response,27,12,60528,p0njrbtzmo2,wolf,No,null,stimuli/organized/EXEMPLAR/USED/Eglobe2.jpg,memory,FALSE,exemplar,TRUE,NA,NA,NA,/Users/martincz/GitHub/COGS119/group_wi26_massive_memory/analysis/../data/raw_data/p0njrbtzmo2_1772139328798.csv,20,female,yes,Testing my recall ability,No,FALSE
NA,image-keyboard-response,29,13,64534,p0njrbtzmo2,wolf,No,null,stimuli/organized/EXEMPLAR/USED/Egrapes1.jpg,memory,FALSE,exemplar,TRUE,NA,NA,NA,/Users/martincz/GitHub/COGS119/group_wi26_massive_memory/analysis/../data/raw_data/p0njrbtzmo2_1772139328798.csv,20,female,yes,Testing my recall ability,No,FALSE
NA,image-keyboard-response,31,14,68541,p0njrbtzmo2,wolf,No,null,stimuli/organized/Novel pairs (tested)/n09apenguin.jpg,memory,FALSE,novel,TRUE,NA,NA,NA,/Users/martincz/GitHub/COGS119/group_wi26_massive_memory/analysis/../data/raw_data/p0njrbtzmo2_1772139328798.csv,20,female,yes,Testing my recall ability,No,FALSE
NA,image-keyboard-response,33,15,72548,p0njrbtzmo2,wolf,No,null,stimuli/organized/STATE/USED/Sabacus2.jpg,memory,FALSE,state,TRUE,NA,NA,NA,/Users/martincz/GitHub/COGS119/group_wi26_massive_memory/analysis/../data/raw_data/p0njrbtzmo2_1772139328798.csv,20,female,yes,Testing my recall ability,No,FALSE
NA,image-keyboard-response,35,16,76554,p0njrbtzmo2,wolf,No,null,stimuli/organized/STATE/USED/Sgiftbag2.jpg,memory,FALSE,state,TRUE,NA,NA,NA,/Users/martincz/GitHub/COGS119/group_wi26_massive_memory/analysis/../data/raw_data/p0njrbtzmo2_1772139328798.csv,20,female,yes,Testing my recall ability,No,FALSE
NA,image-keyboard-response,37,17,80561,p0njrbtzmo2,wolf,No,null,stimuli/organized/EXEMPLAR/USED/Ebicycle2.jpg,memory,FALSE,exemplar,TRUE,NA,NA,NA,/Users/martincz/GitHub/COGS119/group_wi26_massive_memory/analysis/../data/raw_data/p0njrbtzmo2_1772139328798.csv,20,female,yes,Testing my recall ability,No,FALSE
NA,image-keyboard-response,39,18,84567,p0njrbtzmo2,wolf,No,null,stimuli/organized/Novel pairs (tested)/n11abatteries.jpg,memory,FALSE,novel,TRUE,NA,NA,NA,/Users/martincz/GitHub/COGS119/group_wi26_massive_memory/analysis/../data/raw_data/p0njrbtzmo2_1772139328798.csv,20,female,yes,Testing my recall ability,No,FALSE
NA,image-keyboard-response,41,19,88574,p0njrbtzmo2,wolf,No,null,stimuli/organized/EXEMPLAR/USED/Ebread1.jpg,memory,FALSE,exemplar,TRUE,NA,NA,NA,/Users/martincz/GitHub/COGS119/group_wi26_massive_memory/analysis/../data/raw_data/p0njrbtzmo2_1772139328798.csv,20,female,yes,Testing my recall ability,No,FALSE
NA,image-keyboard-response,43,20,92580,p0njrbtzmo2,wolf,No,null,stimuli/organized/EXEMPLAR/USED/Echocolatebar1.jpg,memory,FALSE,exemplar,TRUE,NA,NA,NA,/Users/martincz/GitHub/COGS119/group_wi26_massive_memory/analysis/../data/raw_data/p0njrbtzmo2_1772139328798.csv,20,female,yes,Testing my recall ability,No,FALSE
NA,image-keyboard-response,45,21,96588,p0njrbtzmo2,wolf,No,null,stimuli/organized/Novel pairs (tested)/n10bturkey.jpg,memory,FALSE,novel,TRUE,NA,NA,NA,/Users/martincz/GitHub/COGS119/group_wi26_massive_memory/analysis/../data/raw_data/p0njrbtzmo2_1772139328798.csv,20,female,yes,Testing my recall ability,No,FALSE
NA,image-keyboard-response,47,22,100595,p0njrbtzmo2,wolf,No,null,stimuli/organized/STATE/USED/Sbooks2.JPG,memory,FALSE,state,TRUE,NA,NA,NA,/Users/martincz/GitHub/COGS119/group_wi26_massive_memory/analysis/../data/raw_data/p0njrbtzmo2_1772139328798.csv,20,female,yes,Testing my recall ability,No,FALSE
NA,image-keyboard-response,49,23,104602,p0njrbtzmo2,wolf,No,null,stimuli/organized/STATE/USED/Sscissors1.JPG,memory,FALSE,state,TRUE,NA,NA,NA,/Users/martincz/GitHub/COGS119/group_wi26_massive_memory/analysis/../data/raw_data/p0njrbtzmo2_1772139328798.csv,20,female,yes,Testing my recall ability,No,FALSE
NA,image-keyboard-response,51,24,108607,p0njrbtzmo2,wolf,No,null,stimuli/organized/STATE/USED/Sphone2.JPG,memory,FALSE,state,TRUE,NA,NA,NA,/Users/martincz/GitHub/COGS119/group_wi26_massive_memory/analysis/../data/raw_data/p0njrbtzmo2_1772139328798.csv,20,female,yes,Testing my recall ability,No,FALSE
NA,image-keyboard-response,53,25,112614,p0njrbtzmo2,wolf,No,null,stimuli/organized/STATE/USED/Sbelt2.jpg,memory,FALSE,state,TRUE,NA,NA,NA,/Users/martincz/GitHub/COGS119/group_wi26_massive_memory/analysis/../data/raw_data/p0njrbtzmo2_1772139328798.csv,20,female,yes,Testing my recall ability,No,FALSE
NA,image-keyboard-response,55,26,116621,p0njrbtzmo2,wolf,No,null,stimuli/organized/STATE/USED/Shairbrush1.jpg,memory,FALSE,state,TRUE,NA,NA,NA,/Users/martincz/GitHub/COGS119/group_wi26_massive_memory/analysis/../data/raw_data/p0njrbtzmo2_1772139328798.csv,20,female,yes,Testing my recall ability,No,FALSE
NA,image-keyboard-response,57,27,120627,p0njrbtzmo2,wolf,No,null,stimuli/organized/STATE/USED/Sdishes1.JPG,memory,FALSE,state,TRUE,NA,NA,NA,/Users/martincz/GitHub/COGS119/group_wi26_massive_memory/analysis/../data/raw_data/p0njrbtzmo2_1772139328798.csv,20,female,yes,Testing my recall ability,No,FALSE
NA,image-keyboard-response,59,28,124634,p0njrbtzmo2,wolf,No,null,stimuli/organized/EXEMPLAR/USED/Efan2.jpg,memory,FALSE,exemplar,TRUE,NA,NA,NA,/Users/martincz/GitHub/COGS119/group_wi26_massive_memory/analysis/../data/raw_data/p0njrbtzmo2_1772139328798.csv,20,female,yes,Testing my recall ability,No,FALSE
NA,image-keyboard-response,61,29,128640,p0njrbtzmo2,wolf,No,null,stimuli/organized/STATE/USED/Sjuiceglass2.JPG,memory,FALSE,state,TRUE,NA,NA,NA,/Users/martincz/GitHub/COGS119/group_wi26_massive_memory/analysis/../data/raw_data/p0njrbtzmo2_1772139328798.csv,20,female,yes,Testing my recall ability,No,FALSE
NA,image-keyboard-response,63,30,132646,p0njrbtzmo2,wolf,No,null,stimuli/organized/Novel pairs (tested)/n13bdustpan.jpg,memory,FALSE,novel,TRUE,NA,NA,NA,/Users/martincz/GitHub/COGS119/group_wi26_massive_memory/analysis/../data/raw_data/p0njrbtzmo2_1772139328798.csv,20,female,yes,Testing my recall ability,No,FALSE
NA,image-keyboard-response,65,31,136653,p0njrbtzmo2,wolf,No,null,stimuli/organized/STATE/USED/Sbreadbox1.JPG,memory,FALSE,state,TRUE,NA,NA,NA,/Users/martincz/GitHub/COGS119/group_wi26_massive_memory/analysis/../data/raw_data/p0njrbtzmo2_1772139328798.csv,20,female,yes,Testing my recall ability,No,FALSE
NA,image-keyboard-response,67,32,140659,p0njrbtzmo2,wolf,No,null,stimuli/organized/EXEMPLAR/USED/Ebracelet2.jpg,memory,FALSE,exemplar,TRUE,NA,NA,NA,/Users/martincz/GitHub/COGS119/group_wi26_massive_memory/analysis/../data/raw_data/p0njrbtzmo2_1772139328798.csv,20,female,yes,Testing my recall ability,No,FALSE
NA,image-keyboard-response,69,33,144666,p0njrbtzmo2,wolf,No,null,stimuli/organized/STATE/USED/Sgrinder2.jpg,memory,FALSE,state,TRUE,NA,NA,NA,/Users/martincz/GitHub/COGS119/group_wi26_massive_memory/analysis/../data/raw_data/p0njrbtzmo2_1772139328798.csv,20,female,yes,Testing my recall ability,No,FALSE
NA,image-keyboard-response,71,34,148672,p0njrbtzmo2,wolf,No,null,stimuli/organized/Novel pairs (tested)/n06blipstick.jpg,memory,FALSE,novel,TRUE,NA,NA,NA,/Users/martincz/GitHub/COGS119/group_wi26_massive_memory/analysis/../data/raw_data/p0njrbtzmo2_1772139328798.csv,20,female,yes,Testing my recall ability,No,FALSE
NA,image-keyboard-response,73,35,152679,p0njrbtzmo2,wolf,No,null,stimuli/organized/EXEMPLAR/USED/Ecar1.jpg,memory,FALSE,exemplar,TRUE,NA,NA,NA,/Users/martincz/GitHub/COGS119/group_wi26_massive_memory/analysis/../data/raw_data/p0njrbtzmo2_1772139328798.csv,20,female,yes,Testing my recall ability,No,FALSE
NA,image-keyboard-response,75,36,156687,p0njrbtzmo2,wolf,No,null,stimuli/organized/STATE/USED/Scrayons2.jpg,memory,FALSE,state,TRUE,NA,NA,NA,/Users/martincz/GitHub/COGS119/group_wi26_massive_memory/analysis/../data/raw_data/p0njrbtzmo2_1772139328798.csv,20,female,yes,Testing my recall ability,No,FALSE
NA,image-keyboard-response,77,37,160692,p0njrbtzmo2,wolf,No,null,stimuli/organized/STATE/USED/Sdryer2.jpg,memory,FALSE,state,TRUE,NA,NA,NA,/Users/martincz/GitHub/COGS119/group_wi26_massive_memory/analysis/../data/raw_data/p0njrbtzmo2_1772139328798.csv,20,female,yes,Testing my recall ability,No,FALSE
NA,image-keyboard-response,79,38,164698,p0njrbtzmo2,wolf,No,null,stimuli/organized/Novel pairs (tested)/n05abarrel.jpg,memory,FALSE,novel,TRUE,NA,NA,NA,/Users/martincz/GitHub/COGS119/group_wi26_massive_memory/analysis/../data/raw_data/p0njrbtzmo2_1772139328798.csv,20,female,yes,Testing my recall ability,No,FALSE
NA,image-keyboard-response,81,39,168704,p0njrbtzmo2,wolf,No,null,stimuli/organized/EXEMPLAR/USED/Egoggles2.jpg,memory,FALSE,exemplar,TRUE,NA,NA,NA,/Users/martincz/GitHub/COGS119/group_wi26_massive_memory/analysis/../data/raw_data/p0njrbtzmo2_1772139328798.csv,20,female,yes,Testing my recall ability,No,FALSE
NA,image-keyboard-response,83,40,172710,p0njrbtzmo2,wolf,No,null,stimuli/organized/Novel pairs (tested)/n14acigarette.jpg,memory,FALSE,novel,TRUE,NA,NA,NA,/Users/martincz/GitHub/COGS119/group_wi26_massive_memory/analysis/../data/raw_data/p0njrbtzmo2_1772139328798.csv,20,female,yes,Testing my recall ability,No,FALSE
NA,image-keyboard-response,85,41,176717,p0njrbtzmo2,wolf,No,null,stimuli/organized/Novel pairs (tested)/n03acamel.jpg,memory,FALSE,novel,TRUE,NA,NA,NA,/Users/martincz/GitHub/COGS119/group_wi26_massive_memory/analysis/../data/raw_data/p0njrbtzmo2_1772139328798.csv,20,female,yes,Testing my recall ability,No,FALSE
NA,image-keyboard-response,87,42,180723,p0njrbtzmo2,wolf,No,null,stimuli/organized/STATE/USED/Spotpan1.JPG,memory,FALSE,state,TRUE,NA,NA,NA,/Users/martincz/GitHub/COGS119/group_wi26_massive_memory/analysis/../data/raw_data/p0njrbtzmo2_1772139328798.csv,20,female,yes,Testing my recall ability,No,FALSE
NA,image-keyboard-response,89,43,184731,p0njrbtzmo2,wolf,No,null,stimuli/organized/Novel pairs (tested)/n01bcoin.jpg,memory,FALSE,novel,TRUE,NA,NA,NA,/Users/martincz/GitHub/COGS119/group_wi26_massive_memory/analysis/../data/raw_data/p0njrbtzmo2_1772139328798.csv,20,female,yes,Testing my recall ability,No,FALSE
NA,image-keyboard-response,91,44,188738,p0njrbtzmo2,wolf,No,null,stimuli/organized/EXEMPLAR/USED/Ecalculator2.jpg,memory,FALSE,exemplar,TRUE,NA,NA,NA,/Users/martincz/GitHub/COGS119/group_wi26_massive_memory/analysis/../data/raw_data/p0njrbtzmo2_1772139328798.csv,20,female,yes,Testing my recall ability,No,FALSE
NA,image-keyboard-response,93,45,192745,p0njrbtzmo2,wolf,No,null,stimuli/organized/Novel pairs (tested)/n12atelescope.jpg,memory,FALSE,novel,TRUE,NA,NA,NA,/Users/martincz/GitHub/COGS119/group_wi26_massive_memory/analysis/../data/raw_data/p0njrbtzmo2_1772139328798.csv,20,female,yes,Testing my recall ability,No,FALSE
NA,image-keyboard-response,95,46,196752,p0njrbtzmo2,wolf,No,null,stimuli/organized/Novel pairs (tested)/n19apickle.jpg,memory,FALSE,novel,TRUE,NA,NA,NA,/Users/martincz/GitHub/COGS119/group_wi26_massive_memory/analysis/../data/raw_data/p0njrbtzmo2_1772139328798.csv,20,female,yes,Testing my recall ability,No,FALSE
NA,image-keyboard-response,97,47,200758,p0njrbtzmo2,wolf,No,null,stimuli/organized/EXEMPLAR/USED/Ecabinet1.jpg,memory,FALSE,exemplar,TRUE,NA,NA,NA,/Users/martincz/GitHub/COGS119/group_wi26_massive_memory/analysis/../data/raw_data/p0njrbtzmo2_1772139328798.csv,20,female,yes,Testing my recall ability,No,FALSE
NA,image-keyboard-response,99,48,204765,p0njrbtzmo2,wolf,No,null,stimuli/organized/STATE/USED/Sfiretrucktoy2.jpg,memory,FALSE,state,TRUE,NA,NA,NA,/Users/martincz/GitHub/COGS119/group_wi26_massive_memory/analysis/../data/raw_data/p0njrbtzmo2_1772139328798.csv,20,female,yes,Testing my recall ability,No,FALSE
NA,image-keyboard-response,101,49,208772,p0njrbtzmo2,wolf,No,null,stimuli/organized/EXEMPLAR/USED/Echisel1.jpg,memory,FALSE,exemplar,TRUE,NA,NA,NA,/Users/martincz/GitHub/COGS119/group_wi26_massive_memory/analysis/../data/raw_data/p0njrbtzmo2_1772139328798.csv,20,female,yes,Testing my recall ability,No,FALSE
NA,image-keyboard-response,103,50,212779,p0njrbtzmo2,wolf,No,null,stimuli/organized/STATE/USED/Sgiftbox2.jpg,memory,FALSE,state,TRUE,NA,NA,NA,/Users/martincz/GitHub/COGS119/group_wi26_massive_memory/analysis/../data/raw_data/p0njrbtzmo2_1772139328798.csv,20,female,yes,Testing my recall ability,No,FALSE
NA,image-keyboard-response,105,51,216785,p0njrbtzmo2,wolf,No,null,stimuli/organized/STATE/USED/Sdrum2.jpg,memory,FALSE,state,TRUE,NA,NA,NA,/Users/martincz/GitHub/COGS119/group_wi26_massive_memory/analysis/../data/raw_data/p0njrbtzmo2_1772139328798.csv,20,female,yes,Testing my recall ability,No,FALSE
NA,image-keyboard-response,107,52,220791,p0njrbtzmo2,wolf,No,null,stimuli/organized/Novel pairs (tested)/n04ayarn.jpg,memory,FALSE,novel,TRUE,NA,NA,NA,/Users/martincz/GitHub/COGS119/group_wi26_massive_memory/analysis/../data/raw_data/p0njrbtzmo2_1772139328798.csv,20,female,yes,Testing my recall ability,No,FALSE
NA,image-keyboard-response,109,53,224798,p0njrbtzmo2,wolf,No,null,stimuli/organized/EXEMPLAR/USED/Econe1.jpg,memory,FALSE,exemplar,TRUE,NA,NA,NA,/Users/martincz/GitHub/COGS119/group_wi26_massive_memory/analysis/../data/raw_data/p0njrbtzmo2_1772139328798.csv,20,female,yes,Testing my recall ability,No,FALSE
NA,image-keyboard-response,111,54,228805,p0njrbtzmo2,wolf,No,null,stimuli/organized/Novel pairs (tested)/n15bfootball.jpg,memory,FALSE,novel,TRUE,NA,NA,NA,/Users/martincz/GitHub/COGS119/group_wi26_massive_memory/analysis/../data/raw_data/p0njrbtzmo2_1772139328798.csv,20,female,yes,Testing my recall ability,No,FALSE
NA,image-keyboard-response,113,55,232810,p0njrbtzmo2,wolf,No,null,stimuli/organized/Novel pairs (tested)/n02bsafetypin.jpg,memory,FALSE,novel,TRUE,NA,NA,NA,/Users/martincz/GitHub/COGS119/group_wi26_massive_memory/analysis/../data/raw_data/p0njrbtzmo2_1772139328798.csv,20,female,yes,Testing my recall ability,No,FALSE
NA,image-keyboard-response,115,56,236817,p0njrbtzmo2,wolf,No,null,stimuli/organized/Novel pairs (tested)/n08aoven.jpg,memory,FALSE,novel,TRUE,NA,NA,NA,/Users/martincz/GitHub/COGS119/group_wi26_massive_memory/analysis/../data/raw_data/p0njrbtzmo2_1772139328798.csv,20,female,yes,Testing my recall ability,No,FALSE
NA,image-keyboard-response,117,57,240823,p0njrbtzmo2,wolf,No,null,stimuli/organized/STATE/USED/Sdie2.jpg,memory,FALSE,state,TRUE,NA,NA,NA,/Users/martincz/GitHub/COGS119/group_wi26_massive_memory/analysis/../data/raw_data/p0njrbtzmo2_1772139328798.csv,20,female,yes,Testing my recall ability,No,FALSE
NA,image-keyboard-response,119,58,244830,p0njrbtzmo2,wolf,No,null,stimuli/organized/STATE/USED/Sbottles2.JPG,memory,FALSE,state,TRUE,NA,NA,NA,/Users/martincz/GitHub/COGS119/group_wi26_massive_memory/analysis/../data/raw_data/p0njrbtzmo2_1772139328798.csv,20,female,yes,Testing my recall ability,No,FALSE
NA,image-keyboard-response,121,59,248835,p0njrbtzmo2,wolf,No,null,stimuli/organized/EXEMPLAR/USED/Edispenser1.jpg,memory,FALSE,exemplar,TRUE,NA,NA,NA,/Users/martincz/GitHub/COGS119/group_wi26_massive_memory/analysis/../data/raw_data/p0njrbtzmo2_1772139328798.csv,20,female,yes,Testing my recall ability,No,FALSE
NA,image-keyboard-response,123,60,252842,p0njrbtzmo2,wolf,No,null,stimuli/organized/STATE/USED/Sbureau1.JPG,memory,FALSE,state,TRUE,NA,NA,NA,/Users/martincz/GitHub/COGS119/group_wi26_massive_memory/analysis/../data/raw_data/p0njrbtzmo2_1772139328798.csv,20,female,yes,Testing my recall ability,No,FALSE
NA,image-keyboard-response,125,61,256849,p0njrbtzmo2,wolf,No,null,stimuli/organized/Novel pairs (tested)/n17avendingmachine.jpg,memory,FALSE,novel,TRUE,NA,NA,NA,/Users/martincz/GitHub/COGS119/group_wi26_massive_memory/analysis/../data/raw_data/p0njrbtzmo2_1772139328798.csv,20,female,yes,Testing my recall ability,No,FALSE
NA,image-keyboard-response,127,62,260856,p0njrbtzmo2,wolf,No,null,stimuli/organized/STATE/USED/Scookies1.JPG,memory,FALSE,state,TRUE,NA,NA,NA,/Users/martincz/GitHub/COGS119/group_wi26_massive_memory/analysis/../data/raw_data/p0njrbtzmo2_1772139328798.csv,20,female,yes,Testing my recall ability,No,FALSE
NA,image-keyboard-response,129,63,264863,p0njrbtzmo2,wolf,No,null,stimuli/organized/EXEMPLAR/USED/Ebell1.jpg,memory,FALSE,exemplar,TRUE,NA,NA,NA,/Users/martincz/GitHub/COGS119/group_wi26_massive_memory/analysis/../data/raw_data/p0njrbtzmo2_1772139328798.csv,20,female,yes,Testing my recall ability,No,FALSE
NA,image-keyboard-response,131,64,268869,p0njrbtzmo2,wolf,No,null,stimuli/organized/Novel pairs (tested)/n20acarseat.jpg,memory,FALSE,novel,TRUE,NA,NA,NA,/Users/martincz/GitHub/COGS119/group_wi26_massive_memory/analysis/../data/raw_data/p0njrbtzmo2_1772139328798.csv,20,female,yes,Testing my recall ability,No,FALSE
1273,image-keyboard-response,133,65,272876,p0njrbtzmo2,wolf,No,NA,stimuli/organized/Novel pairs (tested)/n19apickle.jpg,memory,TRUE,novel,TRUE,NA,NA,NA,/Users/martincz/GitHub/COGS119/group_wi26_massive_memory/analysis/../data/raw_data/p0njrbtzmo2_1772139328798.csv,20,female,yes,Testing my recall ability,No,FALSE
NA,image-keyboard-response,135,66,276881,p0njrbtzmo2,wolf,No,null,stimuli/organized/STATE/USED/Sdonut1.jpg,memory,FALSE,state,TRUE,NA,NA,NA,/Users/martincz/GitHub/COGS119/group_wi26_massive_memory/analysis/../data/raw_data/p0njrbtzmo2_1772139328798.csv,20,female,yes,Testing my recall ability,No,FALSE
NA,image-keyboard-response,137,67,280886,p0njrbtzmo2,wolf,No,null,stimuli/organized/STATE/USED/Sapplesgreenbasket1.jpg,memory,FALSE,state,TRUE,NA,NA,NA,/Users/martincz/GitHub/COGS119/group_wi26_massive_memory/analysis/../data/raw_data/p0njrbtzmo2_1772139328798.csv,20,female,yes,Testing my recall ability,No,FALSE
NA,image-keyboard-response,139,68,284894,p0njrbtzmo2,wolf,No,null,stimuli/organized/STATE/USED/Slaptop1.JPG,memory,FALSE,state,TRUE,NA,NA,NA,/Users/martincz/GitHub/COGS119/group_wi26_massive_memory/analysis/../data/raw_data/p0njrbtzmo2_1772139328798.csv,20,female,yes,Testing my recall ability,No,FALSE
NA,image-keyboard-response,141,69,288900,p0njrbtzmo2,wolf,No,null,stimuli/organized/EXEMPLAR/USED/Ecamera1.jpg,memory,FALSE,exemplar,TRUE,NA,NA,NA,/Users/martincz/GitHub/COGS119/group_wi26_massive_memory/analysis/../data/raw_data/p0njrbtzmo2_1772139328798.csv,20,female,yes,Testing my recall ability,No,FALSE
NA,image-keyboard-response,143,70,292908,p0njrbtzmo2,wolf,No,null,stimuli/organized/STATE/USED/Scontainer1.JPG,memory,FALSE,state,TRUE,NA,NA,NA,/Users/martincz/GitHub/COGS119/group_wi26_massive_memory/analysis/../data/raw_data/p0njrbtzmo2_1772139328798.csv,20,female,yes,Testing my recall ability,No,FALSE
NA,image-keyboard-response,145,71,296914,p0njrbtzmo2,wolf,No,null,stimuli/organized/STATE/USED/Sbox2.jpg,memory,FALSE,state,TRUE,NA,NA,NA,/Users/martincz/GitHub/COGS119/group_wi26_massive_memory/analysis/../data/raw_data/p0njrbtzmo2_1772139328798.csv,20,female,yes,Testing my recall ability,No,FALSE
NA,image-keyboard-response,147,72,300921,p0njrbtzmo2,wolf,No,null,stimuli/organized/Novel pairs (tested)/n18apretzel.jpg,memory,FALSE,novel,TRUE,NA,NA,NA,/Users/martincz/GitHub/COGS119/group_wi26_massive_memory/analysis/../data/raw_data/p0njrbtzmo2_1772139328798.csv,20,female,yes,Testing my recall ability,No,FALSE
NA,image-keyboard-response,149,73,304928,p0njrbtzmo2,wolf,No,null,stimuli/organized/EXEMPLAR/USED/Efeather2.jpg,memory,FALSE,exemplar,TRUE,NA,NA,NA,/Users/martincz/GitHub/COGS119/group_wi26_massive_memory/analysis/../data/raw_data/p0njrbtzmo2_1772139328798.csv,20,female,yes,Testing my recall ability,No,FALSE
NA,image-keyboard-response,151,74,308934,p0njrbtzmo2,wolf,No,null,stimuli/organized/STATE/USED/Sbrushes2.jpg,memory,FALSE,state,TRUE,NA,NA,NA,/Users/martincz/GitHub/COGS119/group_wi26_massive_memory/analysis/../data/raw_data/p0njrbtzmo2_1772139328798.csv,20,female,yes,Testing my recall ability,No,FALSE
NA,image-keyboard-response,153,75,312939,p0njrbtzmo2,wolf,No,null,stimuli/organized/Novel pairs (tested)/n10bturkey.jpg,memory,TRUE,novel,FALSE,NA,NA,NA,/Users/martincz/GitHub/COGS119/group_wi26_massive_memory/analysis/../data/raw_data/p0njrbtzmo2_1772139328798.csv,20,female,yes,Testing my recall ability,No,FALSE
NA,image-keyboard-response,155,76,316946,p0njrbtzmo2,wolf,No,null,stimuli/organized/STATE/USED/Sdresser1.jpg,memory,FALSE,state,TRUE,NA,NA,NA,/Users/martincz/GitHub/COGS119/group_wi26_massive_memory/analysis/../data/raw_data/p0njrbtzmo2_1772139328798.csv,20,female,yes,Testing my recall ability,No,FALSE
922,image-keyboard-response,157,77,320952,p0njrbtzmo2,wolf,No,NA,stimuli/organized/STATE/USED/Slaptop1.JPG,memory,TRUE,state,TRUE,NA,NA,NA,/Users/martincz/GitHub/COGS119/group_wi26_massive_memory/analysis/../data/raw_data/p0njrbtzmo2_1772139328798.csv,20,female,yes,Testing my recall ability,No,FALSE
1120,image-keyboard-response,159,78,324959,p0njrbtzmo2,wolf,No,NA,stimuli/organized/STATE/USED/Sbriefcase1.jpg,memory,TRUE,state,TRUE,NA,NA,NA,/Users/martincz/GitHub/COGS119/group_wi26_massive_memory/analysis/../data/raw_data/p0njrbtzmo2_1772139328798.csv,20,female,yes,Testing my recall ability,No,FALSE
NA,image-keyboard-response,161,79,328966,p0njrbtzmo2,wolf,No,null,stimuli/organized/STATE/USED/Schinesefoodbox1.jpg,memory,FALSE,state,TRUE,NA,NA,NA,/Users/martincz/GitHub/COGS119/group_wi26_massive_memory/analysis/../data/raw_data/p0njrbtzmo2_1772139328798.csv,20,female,yes,Testing my recall ability,No,FALSE
NA,image-keyboard-response,163,80,332973,p0njrbtzmo2,wolf,No,null,stimuli/organized/Novel pairs (tested)/n07bswimmingpool.jpg,memory,FALSE,novel,TRUE,NA,NA,NA,/Users/martincz/GitHub/COGS119/group_wi26_massive_memory/analysis/../data/raw_data/p0njrbtzmo2_1772139328798.csv,20,female,yes,Testing my recall ability,No,FALSE
917,image-keyboard-response,165,81,336980,p0njrbtzmo2,wolf,No,NA,stimuli/organized/Novel pairs (tested)/n07bswimmingpool.jpg,memory,TRUE,novel,TRUE,NA,NA,NA,/Users/martincz/GitHub/COGS119/group_wi26_massive_memory/analysis/../data/raw_data/p0njrbtzmo2_1772139328798.csv,20,female,yes,Testing my recall ability,No,FALSE
1938,html-button-response,168,82,438672,p0njrbtzmo2,wolf,No,1,Which of these items did you see earlier?,test,NA,state,TRUE,stimuli/organized/STATE/USED/Sdonut1.jpg,stimuli/organized/STATE/USED/Sdonut2.jpg,1,/Users/martincz/GitHub/COGS119/group_wi26_massive_memory/analysis/../data/raw_data/p0njrbtzmo2_1772139328798.csv,20,female,yes,Testing my recall ability,No,FALSE
4167,html-button-response,169,83,442840,p0njrbtzmo2,wolf,No,0,Which of these items did you see earlier?,test,NA,state,TRUE,stimuli/organized/STATE/USED/Sbriefcase1.jpg,stimuli/organized/STATE/USED/Sbriefcase2.jpg,0,/Users/martincz/GitHub/COGS119/group_wi26_massive_memory/analysis/../data/raw_data/p0njrbtzmo2_1772139328798.csv,20,female,yes,Testing my recall ability,No,FALSE
2008,html-button-response,170,84,444848,p0njrbtzmo2,wolf,No,0,Which of these items did you see earlier?,test,NA,novel,TRUE,stimuli/organized/Novel pairs (tested)/n06blipstick.jpg,stimuli/organized/Novel pairs (tested)/n06acane.jpg,0,/Users/martincz/GitHub/COGS119/group_wi26_massive_memory/analysis/../data/raw_data/p0njrbtzmo2_1772139328798.csv,20,female,yes,Testing my recall ability,No,FALSE
1485,html-button-response,171,85,446333,p0njrbtzmo2,wolf,No,1,Which of these items did you see earlier?,test,NA,exemplar,TRUE,stimuli/organized/EXEMPLAR/USED/Ecalculator2.jpg,stimuli/organized/EXEMPLAR/USED/Ecalculator1.jpg,1,/Users/martincz/GitHub/COGS119/group_wi26_massive_memory/analysis/../data/raw_data/p0njrbtzmo2_1772139328798.csv,20,female,yes,Testing my recall ability,No,FALSE
987,html-button-response,172,86,447321,p0njrbtzmo2,wolf,No,0,Which of these items did you see earlier?,test,NA,novel,TRUE,stimuli/organized/Novel pairs (tested)/n04ayarn.jpg,stimuli/organized/Novel pairs (tested)/n04bbandaid.jpg,0,/Users/martincz/GitHub/COGS119/group_wi26_massive_memory/analysis/../data/raw_data/p0njrbtzmo2_1772139328798.csv,20,female,yes,Testing my recall ability,No,FALSE
7556,html-button-response,173,87,454877,p0njrbtzmo2,wolf,No,0,Which of these items did you see earlier?,test,NA,state,TRUE,stimuli/organized/STATE/USED/Sdresser1.jpg,stimuli/organized/STATE/USED/Sdresser2.jpg,0,/Users/martincz/GitHub/COGS119/group_wi26_massive_memory/analysis/../data/raw_data/p0njrbtzmo2_1772139328798.csv,20,female,yes,Testing my recall ability,No,FALSE
2224,html-button-response,174,88,457102,p0njrbtzmo2,wolf,No,0,Which of these items did you see earlier?,test,NA,exemplar,TRUE,stimuli/organized/EXEMPLAR/USED/Ebasket1.jpg,stimuli/organized/EXEMPLAR/USED/Ebasket2.jpg,0,/Users/martincz/GitHub/COGS119/group_wi26_massive_memory/analysis/../data/raw_data/p0njrbtzmo2_1772139328798.csv,20,female,yes,Testing my recall ability,No,FALSE
1011,html-button-response,175,89,458114,p0njrbtzmo2,wolf,No,0,Which of these items did you see earlier?,test,NA,exemplar,TRUE,stimuli/organized/EXEMPLAR/USED/Efeather2.jpg,stimuli/organized/EXEMPLAR/USED/Efeather1.jpg,0,/Users/martincz/GitHub/COGS119/group_wi26_massive_memory/analysis/../data/raw_data/p0njrbtzmo2_1772139328798.csv,20,female,yes,Testing my recall ability,No,FALSE
1212,html-button-response,176,90,459326,p0njrbtzmo2,wolf,No,1,Which of these items did you see earlier?,test,NA,state,TRUE,stimuli/organized/STATE/USED/Sgiftbox2.jpg,stimuli/organized/STATE/USED/Sgiftbox1.jpg,1,/Users/martincz/GitHub/COGS119/group_wi26_massive_memory/analysis/../data/raw_data/p0njrbtzmo2_1772139328798.csv,20,female,yes,Testing my recall ability,No,FALSE
1461,html-button-response,177,91,460787,p0njrbtzmo2,wolf,No,1,Which of these items did you see earlier?,test,NA,state,TRUE,stimuli/organized/STATE/USED/Sabacus2.jpg,stimuli/organized/STATE/USED/Sabacus1.jpg,1,/Users/martincz/GitHub/COGS119/group_wi26_massive_memory/analysis/../data/raw_data/p0njrbtzmo2_1772139328798.csv,20,female,yes,Testing my recall ability,No,FALSE
1694,html-button-response,178,92,462482,p0njrbtzmo2,wolf,No,1,Which of these items did you see earlier?,test,NA,state,TRUE,stimuli/organized/STATE/USED/Seggs2.jpg,stimuli/organized/STATE/USED/Seggs1.jpg,1,/Users/martincz/GitHub/COGS119/group_wi26_massive_memory/analysis/../data/raw_data/p0njrbtzmo2_1772139328798.csv,20,female,yes,Testing my recall ability,No,FALSE
851,html-button-response,179,93,463333,p0njrbtzmo2,wolf,No,1,Which of these items did you see earlier?,test,NA,exemplar,TRUE,stimuli/organized/EXEMPLAR/USED/Egrapes1.jpg,stimuli/organized/EXEMPLAR/USED/Egrapes2.jpg,1,/Users/martincz/GitHub/COGS119/group_wi26_massive_memory/analysis/../data/raw_data/p0njrbtzmo2_1772139328798.csv,20,female,yes,Testing my recall ability,No,FALSE
2585,html-button-response,180,94,465919,p0njrbtzmo2,wolf,No,1,Which of these items did you see earlier?,test,NA,state,TRUE,stimuli/organized/STATE/USED/Schinesefoodbox1.jpg,stimuli/organized/STATE/USED/Schinesefoodbox2.jpg,1,/Users/martincz/GitHub/COGS119/group_wi26_massive_memory/analysis/../data/raw_data/p0njrbtzmo2_1772139328798.csv,20,female,yes,Testing my recall ability,No,FALSE
1100,html-button-response,181,95,467019,p0njrbtzmo2,wolf,No,0,Which of these items did you see earlier?,test,NA,state,TRUE,stimuli/organized/STATE/USED/Sbelt2.jpg,stimuli/organized/STATE/USED/Sbelt1.jpg,0,/Users/martincz/GitHub/COGS119/group_wi26_massive_memory/analysis/../data/raw_data/p0njrbtzmo2_1772139328798.csv,20,female,yes,Testing my recall ability,No,FALSE
1413,html-button-response,182,96,468432,p0njrbtzmo2,wolf,No,1,Which of these items did you see earlier?,test,NA,state,TRUE,stimuli/organized/STATE/USED/Scoffeemaker2.JPG,stimuli/organized/STATE/USED/Scoffeemaker1.JPG,1,/Users/martincz/GitHub/COGS119/group_wi26_massive_memory/analysis/../data/raw_data/p0njrbtzmo2_1772139328798.csv,20,female,yes,Testing my recall ability,No,FALSE
1381,html-button-response,183,97,469813,p0njrbtzmo2,wolf,No,1,Which of these items did you see earlier?,test,NA,exemplar,TRUE,stimuli/organized/EXEMPLAR/USED/Echocolatebar1.jpg,stimuli/organized/EXEMPLAR/USED/Echocolatebar2.jpg,1,/Users/martincz/GitHub/COGS119/group_wi26_massive_memory/analysis/../data/raw_data/p0njrbtzmo2_1772139328798.csv,20,female,yes,Testing my recall ability,No,FALSE
1646,html-button-response,184,98,471459,p0njrbtzmo2,wolf,No,0,Which of these items did you see earlier?,test,NA,novel,TRUE,stimuli/organized/Novel pairs (tested)/n05abarrel.jpg,stimuli/organized/Novel pairs (tested)/n05bcactus.jpg,0,/Users/martincz/GitHub/COGS119/group_wi26_massive_memory/analysis/../data/raw_data/p0njrbtzmo2_1772139328798.csv,20,female,yes,Testing my recall ability,No,FALSE
907,html-button-response,185,99,472367,p0njrbtzmo2,wolf,No,0,Which of these items did you see earlier?,test,NA,state,TRUE,stimuli/organized/STATE/USED/Sbureau1.JPG,stimuli/organized/STATE/USED/Sbureau2.JPG,0,/Users/martincz/GitHub/COGS119/group_wi26_massive_memory/analysis/../data/raw_data/p0njrbtzmo2_1772139328798.csv,20,female,yes,Testing my recall ability,No,FALSE
4665,html-button-response,186,100,477033,p0njrbtzmo2,wolf,No,1,Which of these items did you see earlier?,test,NA,state,FALSE,stimuli/organized/STATE/USED/Sdrum2.jpg,stimuli/organized/STATE/USED/Sdrum1.jpg,0,/Users/martincz/GitHub/COGS119/group_wi26_massive_memory/analysis/../data/raw_data/p0njrbtzmo2_1772139328798.csv,20,female,yes,Testing my recall ability,No,FALSE
858,html-button-response,187,101,477892,p0njrbtzmo2,wolf,No,0,Which of these items did you see earlier?,test,NA,novel,TRUE,stimuli/organized/Novel pairs (tested)/n02bsafetypin.jpg,stimuli/organized/Novel pairs (tested)/n02aaxe.jpg,0,/Users/martincz/GitHub/COGS119/group_wi26_massive_memory/analysis/../data/raw_data/p0njrbtzmo2_1772139328798.csv,20,female,yes,Testing my recall ability,No,FALSE
883,html-button-response,188,102,478775,p0njrbtzmo2,wolf,No,0,Which of these items did you see earlier?,test,NA,exemplar,TRUE,stimuli/organized/EXEMPLAR/USED/Echisel1.jpg,stimuli/organized/EXEMPLAR/USED/Echisel2.jpg,0,/Users/martincz/GitHub/COGS119/group_wi26_massive_memory/analysis/../data/raw_data/p0njrbtzmo2_1772139328798.csv,20,female,yes,Testing my recall ability,No,FALSE
1044,html-button-response,189,103,479819,p0njrbtzmo2,wolf,No,1,Which of these items did you see earlier?,test,NA,novel,TRUE,stimuli/organized/Novel pairs (tested)/n14acigarette.jpg,stimuli/organized/Novel pairs (tested)/n14bgolfball.jpg,1,/Users/martincz/GitHub/COGS119/group_wi26_massive_memory/analysis/../data/raw_data/p0njrbtzmo2_1772139328798.csv,20,female,yes,Testing my recall ability,No,FALSE
1268,html-button-response,190,104,481088,p0njrbtzmo2,wolf,No,1,Which of these items did you see earlier?,test,NA,state,TRUE,stimuli/organized/STATE/USED/Scookies1.JPG,stimuli/organized/STATE/USED/Scookies2.JPG,1,/Users/martincz/GitHub/COGS119/group_wi26_massive_memory/analysis/../data/raw_data/p0njrbtzmo2_1772139328798.csv,20,female,yes,Testing my recall ability,No,FALSE
995,html-button-response,191,105,482084,p0njrbtzmo2,wolf,No,1,Which of these items did you see earlier?,test,NA,exemplar,TRUE,stimuli/organized/EXEMPLAR/USED/Edispenser1.jpg,stimuli/organized/EXEMPLAR/USED/Edispenser2.jpg,1,/Users/martincz/GitHub/COGS119/group_wi26_massive_memory/analysis/../data/raw_data/p0njrbtzmo2_1772139328798.csv,20,female,yes,Testing my recall ability,No,FALSE
1405,html-button-response,192,106,483489,p0njrbtzmo2,wolf,No,0,Which of these items did you see earlier?,test,NA,state,TRUE,stimuli/organized/STATE/USED/Spie2.JPG,stimuli/organized/STATE/USED/Spie1.JPG,0,/Users/martincz/GitHub/COGS119/group_wi26_massive_memory/analysis/../data/raw_data/p0njrbtzmo2_1772139328798.csv,20,female,yes,Testing my recall ability,No,FALSE
2336,html-button-response,193,107,485826,p0njrbtzmo2,wolf,No,0,Which of these items did you see earlier?,test,NA,exemplar,TRUE,stimuli/organized/EXEMPLAR/USED/Egame2.jpg,stimuli/organized/EXEMPLAR/USED/Egame1.jpg,0,/Users/martincz/GitHub/COGS119/group_wi26_massive_memory/analysis/../data/raw_data/p0njrbtzmo2_1772139328798.csv,20,female,yes,Testing my recall ability,No,FALSE
2079,html-button-response,194,108,487905,p0njrbtzmo2,wolf,No,1,Which of these items did you see earlier?,test,NA,novel,TRUE,stimuli/organized/Novel pairs (tested)/n03acamel.jpg,stimuli/organized/Novel pairs (tested)/n03bbagel.jpg,1,/Users/martincz/GitHub/COGS119/group_wi26_massive_memory/analysis/../data/raw_data/p0njrbtzmo2_1772139328798.csv,20,female,yes,Testing my recall ability,No,FALSE
2875,html-button-response,195,109,490781,p0njrbtzmo2,wolf,No,1,Which of these items did you see earlier?,test,NA,state,TRUE,stimuli/organized/STATE/USED/Sapplesgreenbasket1.jpg,stimuli/organized/STATE/USED/Sapplesgreenbasket2.jpg,1,/Users/martincz/GitHub/COGS119/group_wi26_massive_memory/analysis/../data/raw_data/p0njrbtzmo2_1772139328798.csv,20,female,yes,Testing my recall ability,No,FALSE
842,html-button-response,196,110,491623,p0njrbtzmo2,wolf,No,1,Which of these items did you see earlier?,test,NA,state,TRUE,stimuli/organized/STATE/USED/Slaptop1.JPG,stimuli/organized/STATE/USED/Slaptop2.JPG,1,/Users/martincz/GitHub/COGS119/group_wi26_massive_memory/analysis/../data/raw_data/p0njrbtzmo2_1772139328798.csv,20,female,yes,Testing my recall ability,No,FALSE
1918,html-button-response,197,111,493542,p0njrbtzmo2,wolf,No,1,Which of these items did you see earlier?,test,NA,novel,TRUE,stimuli/organized/Novel pairs (tested)/n16bhammer.jpg,stimuli/organized/Novel pairs (tested)/n16abananas.jpg,1,/Users/martincz/GitHub/COGS119/group_wi26_massive_memory/analysis/../data/raw_data/p0njrbtzmo2_1772139328798.csv,20,female,yes,Testing my recall ability,No,FALSE
2080,html-button-response,198,112,495622,p0njrbtzmo2,wolf,No,0,Which of these items did you see earlier?,test,NA,state,TRUE,stimuli/organized/STATE/USED/Sflask2.jpg,stimuli/organized/STATE/USED/Sflask1.jpg,0,/Users/martincz/GitHub/COGS119/group_wi26_massive_memory/analysis/../data/raw_data/p0njrbtzmo2_1772139328798.csv,20,female,yes,Testing my recall ability,No,FALSE
4565,html-button-response,199,113,500187,p0njrbtzmo2,wolf,No,0,Which of these items did you see earlier?,test,NA,state,FALSE,stimuli/organized/STATE/USED/Sscissors1.JPG,stimuli/organized/STATE/USED/Sscissors2.JPG,1,/Users/martincz/GitHub/COGS119/group_wi26_massive_memory/analysis/../data/raw_data/p0njrbtzmo2_1772139328798.csv,20,female,yes,Testing my recall ability,No,FALSE
891,html-button-response,200,114,501078,p0njrbtzmo2,wolf,No,0,Which of these items did you see earlier?,test,NA,novel,TRUE,stimuli/organized/Novel pairs (tested)/n01bcoin.jpg,stimuli/organized/Novel pairs (tested)/n01aladybug.jpg,0,/Users/martincz/GitHub/COGS119/group_wi26_massive_memory/analysis/../data/raw_data/p0njrbtzmo2_1772139328798.csv,20,female,yes,Testing my recall ability,No,FALSE
995,html-button-response,201,115,502074,p0njrbtzmo2,wolf,No,1,Which of these items did you see earlier?,test,NA,novel,TRUE,stimuli/organized/Novel pairs (tested)/n12atelescope.jpg,stimuli/organized/Novel pairs (tested)/n12bwatch.jpg,1,/Users/martincz/GitHub/COGS119/group_wi26_massive_memory/analysis/../data/raw_data/p0njrbtzmo2_1772139328798.csv,20,female,yes,Testing my recall ability,No,FALSE
1060,html-button-response,202,116,503134,p0njrbtzmo2,wolf,No,1,Which of these items did you see earlier?,test,NA,novel,TRUE,stimuli/organized/Novel pairs (tested)/n18apretzel.jpg,stimuli/organized/Novel pairs (tested)/n18bsnail.jpg,1,/Users/martincz/GitHub/COGS119/group_wi26_massive_memory/analysis/../data/raw_data/p0njrbtzmo2_1772139328798.csv,20,female,yes,Testing my recall ability,No,FALSE
2007,html-button-response,203,117,505142,p0njrbtzmo2,wolf,No,0,Which of these items did you see earlier?,test,NA,state,TRUE,stimuli/organized/STATE/USED/Sfiretrucktoy2.jpg,stimuli/organized/STATE/USED/Sfiretrucktoy1.jpg,0,/Users/martincz/GitHub/COGS119/group_wi26_massive_memory/analysis/../data/raw_data/p0njrbtzmo2_1772139328798.csv,20,female,yes,Testing my recall ability,No,FALSE
1227,html-button-response,204,118,506370,p0njrbtzmo2,wolf,No,1,Which of these items did you see earlier?,test,NA,state,FALSE,stimuli/organized/STATE/USED/Sbrushes2.jpg,stimuli/organized/STATE/USED/Sbrushes1.jpg,0,/Users/martincz/GitHub/COGS119/group_wi26_massive_memory/analysis/../data/raw_data/p0njrbtzmo2_1772139328798.csv,20,female,yes,Testing my recall ability,No,FALSE
1220,html-button-response,205,119,507591,p0njrbtzmo2,wolf,No,0,Which of these items did you see earlier?,test,NA,state,TRUE,stimuli/organized/STATE/USED/Shairbrush1.jpg,stimuli/organized/STATE/USED/Shairbrush2.jpg,0,/Users/martincz/GitHub/COGS119/group_wi26_massive_memory/analysis/../data/raw_data/p0njrbtzmo2_1772139328798.csv,20,female,yes,Testing my recall ability,No,FALSE
1244,html-button-response,206,120,508835,p0njrbtzmo2,wolf,No,1,Which of these items did you see earlier?,test,NA,state,TRUE,stimuli/organized/STATE/USED/Sphone2.JPG,stimuli/organized/STATE/USED/Sphone1.JPG,1,/Users/martincz/GitHub/COGS119/group_wi26_massive_memory/analysis/../data/raw_data/p0njrbtzmo2_1772139328798.csv,20,female,yes,Testing my recall ability,No,FALSE
1060,html-button-response,207,121,509895,p0njrbtzmo2,wolf,No,1,Which of these items did you see earlier?,test,NA,exemplar,TRUE,stimuli/organized/EXEMPLAR/USED/Eglobe2.jpg,stimuli/organized/EXEMPLAR/USED/Eglobe1.jpg,1,/Users/martincz/GitHub/COGS119/group_wi26_massive_memory/analysis/../data/raw_data/p0njrbtzmo2_1772139328798.csv,20,female,yes,Testing my recall ability,No,FALSE
946,html-button-response,208,122,510842,p0njrbtzmo2,wolf,No,1,Which of these items did you see earlier?,test,NA,state,TRUE,stimuli/organized/STATE/USED/Sbox2.jpg,stimuli/organized/STATE/USED/Sbox1.jpg,1,/Users/martincz/GitHub/COGS119/group_wi26_massive_memory/analysis/../data/raw_data/p0njrbtzmo2_1772139328798.csv,20,female,yes,Testing my recall ability,No,FALSE
852,html-button-response,209,123,511694,p0njrbtzmo2,wolf,No,1,Which of these items did you see earlier?,test,NA,exemplar,TRUE,stimuli/organized/EXEMPLAR/USED/Ecamera1.jpg,stimuli/organized/EXEMPLAR/USED/Ecamera2.jpg,1,/Users/martincz/GitHub/COGS119/group_wi26_massive_memory/analysis/../data/raw_data/p0njrbtzmo2_1772139328798.csv,20,female,yes,Testing my recall ability,No,FALSE
7635,html-button-response,210,124,519330,p0njrbtzmo2,wolf,No,1,Which of these items did you see earlier?,test,NA,exemplar,TRUE,stimuli/organized/EXEMPLAR/USED/Econe1.jpg,stimuli/organized/EXEMPLAR/USED/Econe2.jpg,1,/Users/martincz/GitHub/COGS119/group_wi26_massive_memory/analysis/../data/raw_data/p0njrbtzmo2_1772139328798.csv,20,female,yes,Testing my recall ability,No,FALSE
1445,html-button-response,211,125,520776,p0njrbtzmo2,wolf,No,0,Which of these items did you see earlier?,test,NA,exemplar,TRUE,stimuli/organized/EXEMPLAR/USED/Ebread1.jpg,stimuli/organized/EXEMPLAR/USED/Ebread2.jpg,0,/Users/martincz/GitHub/COGS119/group_wi26_massive_memory/analysis/../data/raw_data/p0njrbtzmo2_1772139328798.csv,20,female,yes,Testing my recall ability,No,FALSE
1268,html-button-response,212,126,522045,p0njrbtzmo2,wolf,No,1,Which of these items did you see earlier?,test,NA,state,TRUE,stimuli/organized/STATE/USED/Sjuiceglass2.JPG,stimuli/organized/STATE/USED/Sjuiceglass1.JPG,1,/Users/martincz/GitHub/COGS119/group_wi26_massive_memory/analysis/../data/raw_data/p0njrbtzmo2_1772139328798.csv,20,female,yes,Testing my recall ability,No,FALSE
1413,html-button-response,213,127,523458,p0njrbtzmo2,wolf,No,1,Which of these items did you see earlier?,test,NA,exemplar,TRUE,stimuli/organized/EXEMPLAR/USED/Efan2.jpg,stimuli/organized/EXEMPLAR/USED/Efan1.jpg,1,/Users/martincz/GitHub/COGS119/group_wi26_massive_memory/analysis/../data/raw_data/p0njrbtzmo2_1772139328798.csv,20,female,yes,Testing my recall ability,No,FALSE
1469,html-button-response,214,128,524927,p0njrbtzmo2,wolf,No,0,Which of these items did you see earlier?,test,NA,novel,TRUE,stimuli/organized/Novel pairs (tested)/n11abatteries.jpg,stimuli/organized/Novel pairs (tested)/n11bsock.jpg,0,/Users/martincz/GitHub/COGS119/group_wi26_massive_memory/analysis/../data/raw_data/p0njrbtzmo2_1772139328798.csv,20,female,yes,Testing my recall ability,No,FALSE
1405,html-button-response,215,129,526333,p0njrbtzmo2,wolf,No,1,Which of these items did you see earlier?,test,NA,exemplar,TRUE,stimuli/organized/EXEMPLAR/USED/Ecar1.jpg,stimuli/organized/EXEMPLAR/USED/Ecar2.jpg,1,/Users/martincz/GitHub/COGS119/group_wi26_massive_memory/analysis/../data/raw_data/p0njrbtzmo2_1772139328798.csv,20,female,yes,Testing my recall ability,No,FALSE
1084,html-button-response,216,130,527417,p0njrbtzmo2,wolf,No,1,Which of these items did you see earlier?,test,NA,state,FALSE,stimuli/organized/STATE/USED/Sdie2.jpg,stimuli/organized/STATE/USED/Sdie1.jpg,0,/Users/martincz/GitHub/COGS119/group_wi26_massive_memory/analysis/../data/raw_data/p0njrbtzmo2_1772139328798.csv,20,female,yes,Testing my recall ability,No,FALSE
1750,html-button-response,217,131,529168,p0njrbtzmo2,wolf,No,0,Which of these items did you see earlier?,test,NA,state,TRUE,stimuli/organized/STATE/USED/Scontainer1.JPG,stimuli/organized/STATE/USED/Scontainer2.JPG,0,/Users/martincz/GitHub/COGS119/group_wi26_massive_memory/analysis/../data/raw_data/p0njrbtzmo2_1772139328798.csv,20,female,yes,Testing my recall ability,No,FALSE
1043,html-button-response,218,132,530211,p0njrbtzmo2,wolf,No,0,Which of these items did you see earlier?,test,NA,state,TRUE,stimuli/organized/STATE/USED/Sgrinder2.jpg,stimuli/organized/STATE/USED/Sgrinder1.jpg,0,/Users/martincz/GitHub/COGS119/group_wi26_massive_memory/analysis/../data/raw_data/p0njrbtzmo2_1772139328798.csv,20,female,yes,Testing my recall ability,No,FALSE
1317,html-button-response,219,133,531528,p0njrbtzmo2,wolf,No,0,Which of these items did you see earlier?,test,NA,state,TRUE,stimuli/organized/STATE/USED/Sbreadbox1.JPG,stimuli/organized/STATE/USED/Sbreadbox2.JPG,0,/Users/martincz/GitHub/COGS119/group_wi26_massive_memory/analysis/../data/raw_data/p0njrbtzmo2_1772139328798.csv,20,female,yes,Testing my recall ability,No,FALSE
1541,html-button-response,220,134,533070,p0njrbtzmo2,wolf,No,0,Which of these items did you see earlier?,test,NA,exemplar,TRUE,stimuli/organized/EXEMPLAR/USED/Ebracelet2.jpg,stimuli/organized/EXEMPLAR/USED/Ebracelet1.jpg,0,/Users/martincz/GitHub/COGS119/group_wi26_massive_memory/analysis/../data/raw_data/p0njrbtzmo2_1772139328798.csv,20,female,yes,Testing my recall ability,No,FALSE
1445,html-button-response,221,135,534515,p0njrbtzmo2,wolf,No,1,Which of these items did you see earlier?,test,NA,novel,TRUE,stimuli/organized/Novel pairs (tested)/n09apenguin.jpg,stimuli/organized/Novel pairs (tested)/n09bsaddle.jpg,1,/Users/martincz/GitHub/COGS119/group_wi26_massive_memory/analysis/../data/raw_data/p0njrbtzmo2_1772139328798.csv,20,female,yes,Testing my recall ability,No,FALSE
5444,html-button-response,222,136,539960,p0njrbtzmo2,wolf,No,1,Which of these items did you see earlier?,test,NA,novel,TRUE,stimuli/organized/Novel pairs (tested)/n20acarseat.jpg,stimuli/organized/Novel pairs (tested)/n20bshelf.jpg,1,/Users/martincz/GitHub/COGS119/group_wi26_massive_memory/analysis/../data/raw_data/p0njrbtzmo2_1772139328798.csv,20,female,yes,Testing my recall ability,No,FALSE
2048,html-button-response,223,137,542008,p0njrbtzmo2,wolf,No,0,Which of these items did you see earlier?,test,NA,state,TRUE,stimuli/organized/STATE/USED/Sbottles2.JPG,stimuli/organized/STATE/USED/Sbottles1.JPG,0,/Users/martincz/GitHub/COGS119/group_wi26_massive_memory/analysis/../data/raw_data/p0njrbtzmo2_1772139328798.csv,20,female,yes,Testing my recall ability,No,FALSE
3292,html-button-response,224,138,545300,p0njrbtzmo2,wolf,No,0,Which of these items did you see earlier?,test,NA,state,TRUE,stimuli/organized/STATE/USED/Sbooks2.JPG,stimuli/organized/STATE/USED/Sbooks1.JPG,0,/Users/martincz/GitHub/COGS119/group_wi26_massive_memory/analysis/../data/raw_data/p0njrbtzmo2_1772139328798.csv,20,female,yes,Testing my recall ability,No,FALSE
4625,html-button-response,225,139,549926,p0njrbtzmo2,wolf,No,1,Which of these items did you see earlier?,test,NA,exemplar,FALSE,stimuli/organized/EXEMPLAR/USED/Eframe1.jpg,stimuli/organized/EXEMPLAR/USED/Eframe2.jpg,0,/Users/martincz/GitHub/COGS119/group_wi26_massive_memory/analysis/../data/raw_data/p0njrbtzmo2_1772139328798.csv,20,female,yes,Testing my recall ability,No,FALSE
1557,html-button-response,226,140,551483,p0njrbtzmo2,wolf,No,0,Which of these items did you see earlier?,test,NA,novel,TRUE,stimuli/organized/Novel pairs (tested)/n13bdustpan.jpg,stimuli/organized/Novel pairs (tested)/n13ablueberries.jpg,0,/Users/martincz/GitHub/COGS119/group_wi26_massive_memory/analysis/../data/raw_data/p0njrbtzmo2_1772139328798.csv,20,female,yes,Testing my recall ability,No,FALSE
1943,html-button-response,227,141,553427,p0njrbtzmo2,wolf,No,0,Which of these items did you see earlier?,test,NA,exemplar,TRUE,stimuli/organized/EXEMPLAR/USED/Ecabinet1.jpg,stimuli/organized/EXEMPLAR/USED/Ecabinet2.jpg,0,/Users/martincz/GitHub/COGS119/group_wi26_massive_memory/analysis/../data/raw_data/p0njrbtzmo2_1772139328798.csv,20,female,yes,Testing my recall ability,No,FALSE
995,html-button-response,228,142,554422,p0njrbtzmo2,wolf,No,1,Which of these items did you see earlier?,test,NA,novel,TRUE,stimuli/organized/Novel pairs (tested)/n19apickle.jpg,stimuli/organized/Novel pairs (tested)/n19bhairbrush.jpg,1,/Users/martincz/GitHub/COGS119/group_wi26_massive_memory/analysis/../data/raw_data/p0njrbtzmo2_1772139328798.csv,20,female,yes,Testing my recall ability,No,FALSE
1734,html-button-response,229,143,556157,p0njrbtzmo2,wolf,No,0,Which of these items did you see earlier?,test,NA,state,TRUE,stimuli/organized/STATE/USED/Spotpan1.JPG,stimuli/organized/STATE/USED/Spotpan2.JPG,0,/Users/martincz/GitHub/COGS119/group_wi26_massive_memory/analysis/../data/raw_data/p0njrbtzmo2_1772139328798.csv,20,female,yes,Testing my recall ability,No,FALSE
1148,html-button-response,230,144,557305,p0njrbtzmo2,wolf,No,1,Which of these items did you see earlier?,test,NA,state,TRUE,stimuli/organized/STATE/USED/Scrayons2.jpg,stimuli/organized/STATE/USED/Scrayons1.jpg,1,/Users/martincz/GitHub/COGS119/group_wi26_massive_memory/analysis/../data/raw_data/p0njrbtzmo2_1772139328798.csv,20,female,yes,Testing my recall ability,No,FALSE
2497,html-button-response,231,145,559803,p0njrbtzmo2,wolf,No,0,Which of these items did you see earlier?,test,NA,novel,TRUE,stimuli/organized/Novel pairs (tested)/n10bturkey.jpg,stimuli/organized/Novel pairs (tested)/n10awindmill.jpg,0,/Users/martincz/GitHub/COGS119/group_wi26_massive_memory/analysis/../data/raw_data/p0njrbtzmo2_1772139328798.csv,20,female,yes,Testing my recall ability,No,FALSE
1324,html-button-response,232,146,561127,p0njrbtzmo2,wolf,No,1,Which of these items did you see earlier?,test,NA,state,TRUE,stimuli/organized/STATE/USED/Sgiftbag2.jpg,stimuli/organized/STATE/USED/Sgiftbag1.jpg,1,/Users/martincz/GitHub/COGS119/group_wi26_massive_memory/analysis/../data/raw_data/p0njrbtzmo2_1772139328798.csv,20,female,yes,Testing my recall ability,No,FALSE
2169,html-button-response,233,147,563296,p0njrbtzmo2,wolf,No,0,Which of these items did you see earlier?,test,NA,state,TRUE,stimuli/organized/STATE/USED/Sbabytoy2.JPG,stimuli/organized/STATE/USED/Sbabytoy1.JPG,0,/Users/martincz/GitHub/COGS119/group_wi26_massive_memory/analysis/../data/raw_data/p0njrbtzmo2_1772139328798.csv,20,female,yes,Testing my recall ability,No,FALSE
1051,html-button-response,234,148,564348,p0njrbtzmo2,wolf,No,1,Which of these items did you see earlier?,test,NA,exemplar,TRUE,stimuli/organized/EXEMPLAR/USED/Egoggles2.jpg,stimuli/organized/EXEMPLAR/USED/Egoggles1.jpg,1,/Users/martincz/GitHub/COGS119/group_wi26_massive_memory/analysis/../data/raw_data/p0njrbtzmo2_1772139328798.csv,20,female,yes,Testing my recall ability,No,FALSE
1205,html-button-response,235,149,565553,p0njrbtzmo2,wolf,No,0,Which of these items did you see earlier?,test,NA,novel,TRUE,stimuli/organized/Novel pairs (tested)/n07bswimmingpool.jpg,stimuli/organized/Novel pairs (tested)/n07apotato.jpg,0,/Users/martincz/GitHub/COGS119/group_wi26_massive_memory/analysis/../data/raw_data/p0njrbtzmo2_1772139328798.csv,20,female,yes,Testing my recall ability,No,FALSE
1373,html-button-response,236,150,566926,p0njrbtzmo2,wolf,No,0,Which of these items did you see earlier?,test,NA,state,TRUE,stimuli/organized/STATE/USED/Sdryer2.jpg,stimuli/organized/STATE/USED/Sdryer1.jpg,0,/Users/martincz/GitHub/COGS119/group_wi26_massive_memory/analysis/../data/raw_data/p0njrbtzmo2_1772139328798.csv,20,female,yes,Testing my recall ability,No,FALSE
1613,html-button-response,237,151,568539,p0njrbtzmo2,wolf,No,0,Which of these items did you see earlier?,test,NA,state,TRUE,stimuli/organized/STATE/USED/Sscanner2.JPG,stimuli/organized/STATE/USED/Sscanner1.JPG,0,/Users/martincz/GitHub/COGS119/group_wi26_massive_memory/analysis/../data/raw_data/p0njrbtzmo2_1772139328798.csv,20,female,yes,Testing my recall ability,No,FALSE
1268,html-button-response,238,152,569808,p0njrbtzmo2,wolf,No,1,Which of these items did you see earlier?,test,NA,novel,TRUE,stimuli/organized/Novel pairs (tested)/n08aoven.jpg,stimuli/organized/Novel pairs (tested)/n08bpaperclip.jpg,1,/Users/martincz/GitHub/COGS119/group_wi26_massive_memory/analysis/../data/raw_data/p0njrbtzmo2_1772139328798.csv,20,female,yes,Testing my recall ability,No,FALSE
2216,html-button-response,239,153,572024,p0njrbtzmo2,wolf,No,1,Which of these items did you see earlier?,test,NA,exemplar,TRUE,stimuli/organized/EXEMPLAR/USED/Ebicycle2.jpg,stimuli/organized/EXEMPLAR/USED/Ebicycle1.jpg,1,/Users/martincz/GitHub/COGS119/group_wi26_massive_memory/analysis/../data/raw_data/p0njrbtzmo2_1772139328798.csv,20,female,yes,Testing my recall ability,No,FALSE
770,html-button-response,240,154,572795,p0njrbtzmo2,wolf,No,1,Which of these items did you see earlier?,test,NA,novel,TRUE,stimuli/organized/Novel pairs (tested)/n15bfootball.jpg,stimuli/organized/Novel pairs (tested)/n15aspiderweb.jpg,1,/Users/martincz/GitHub/COGS119/group_wi26_massive_memory/analysis/../data/raw_data/p0njrbtzmo2_1772139328798.csv,20,female,yes,Testing my recall ability,No,FALSE
1132,html-button-response,241,155,573927,p0njrbtzmo2,wolf,No,1,Which of these items did you see earlier?,test,NA,novel,TRUE,stimuli/organized/Novel pairs (tested)/n17avendingmachine.jpg,stimuli/organized/Novel pairs (tested)/n17bweddingdress.jpg,1,/Users/martincz/GitHub/COGS119/group_wi26_massive_memory/analysis/../data/raw_data/p0njrbtzmo2_1772139328798.csv,20,female,yes,Testing my recall ability,No,FALSE
2152,html-button-response,242,156,576080,p0njrbtzmo2,wolf,No,0,Which of these items did you see earlier?,test,NA,exemplar,TRUE,stimuli/organized/EXEMPLAR/USED/Ebell1.jpg,stimuli/organized/EXEMPLAR/USED/Ebell2.jpg,0,/Users/martincz/GitHub/COGS119/group_wi26_massive_memory/analysis/../data/raw_data/p0njrbtzmo2_1772139328798.csv,20,female,yes,Testing my recall ability,No,FALSE
1397,html-button-response,243,157,577477,p0njrbtzmo2,wolf,No,1,Which of these items did you see earlier?,test,NA,state,TRUE,stimuli/organized/STATE/USED/Sdishes1.JPG,stimuli/organized/STATE/USED/Sdishes2.JPG,1,/Users/martincz/GitHub/COGS119/group_wi26_massive_memory/analysis/../data/raw_data/p0njrbtzmo2_1772139328798.csv,20,female,yes,Testing my recall ability,No,FALSE
NA,image-keyboard-response,5,1,13564,p0vtkkgqpg4,mouse,Nope,null,stimuli/organized/STATE/USED/Sapplesgreenbasket2.jpg,memory,FALSE,state,TRUE,NA,NA,NA,/Users/martincz/GitHub/COGS119/group_wi26_massive_memory/analysis/../data/raw_data/p0vtkkgqpg4_1772141591597.csv,21,female,yes,If the consistent visuals of an image or item impacts your memory of similar items.,Nope,FALSE
NA,image-keyboard-response,7,2,17570,p0vtkkgqpg4,mouse,Nope,null,stimuli/organized/STATE/USED/Sgiftbox2.jpg,memory,FALSE,state,TRUE,NA,NA,NA,/Users/martincz/GitHub/COGS119/group_wi26_massive_memory/analysis/../data/raw_data/p0vtkkgqpg4_1772141591597.csv,21,female,yes,If the consistent visuals of an image or item impacts your memory of similar items.,Nope,FALSE
NA,image-keyboard-response,9,3,21575,p0vtkkgqpg4,mouse,Nope,null,stimuli/organized/EXEMPLAR/USED/Ebasket1.jpg,memory,FALSE,exemplar,TRUE,NA,NA,NA,/Users/martincz/GitHub/COGS119/group_wi26_massive_memory/analysis/../data/raw_data/p0vtkkgqpg4_1772141591597.csv,21,female,yes,If the consistent visuals of an image or item impacts your memory of similar items.,Nope,FALSE
NA,image-keyboard-response,11,4,25581,p0vtkkgqpg4,mouse,Nope,null,stimuli/organized/EXEMPLAR/USED/Ebicycle1.jpg,memory,FALSE,exemplar,TRUE,NA,NA,NA,/Users/martincz/GitHub/COGS119/group_wi26_massive_memory/analysis/../data/raw_data/p0vtkkgqpg4_1772141591597.csv,21,female,yes,If the consistent visuals of an image or item impacts your memory of similar items.,Nope,FALSE
NA,image-keyboard-response,13,5,29587,p0vtkkgqpg4,mouse,Nope,null,stimuli/organized/EXEMPLAR/USED/Ecamera2.jpg,memory,FALSE,exemplar,TRUE,NA,NA,NA,/Users/martincz/GitHub/COGS119/group_wi26_massive_memory/analysis/../data/raw_data/p0vtkkgqpg4_1772141591597.csv,21,female,yes,If the consistent visuals of an image or item impacts your memory of similar items.,Nope,FALSE
NA,image-keyboard-response,15,6,33593,p0vtkkgqpg4,mouse,Nope,null,stimuli/organized/STATE/USED/Sbottles2.JPG,memory,FALSE,state,TRUE,NA,NA,NA,/Users/martincz/GitHub/COGS119/group_wi26_massive_memory/analysis/../data/raw_data/p0vtkkgqpg4_1772141591597.csv,21,female,yes,If the consistent visuals of an image or item impacts your memory of similar items.,Nope,FALSE
NA,image-keyboard-response,17,7,37599,p0vtkkgqpg4,mouse,Nope,null,stimuli/organized/Novel pairs (tested)/n15bfootball.jpg,memory,FALSE,novel,TRUE,NA,NA,NA,/Users/martincz/GitHub/COGS119/group_wi26_massive_memory/analysis/../data/raw_data/p0vtkkgqpg4_1772141591597.csv,21,female,yes,If the consistent visuals of an image or item impacts your memory of similar items.,Nope,FALSE
NA,image-keyboard-response,19,8,41606,p0vtkkgqpg4,mouse,Nope,null,stimuli/organized/Novel pairs (tested)/n07bswimmingpool.jpg,memory,FALSE,novel,TRUE,NA,NA,NA,/Users/martincz/GitHub/COGS119/group_wi26_massive_memory/analysis/../data/raw_data/p0vtkkgqpg4_1772141591597.csv,21,female,yes,If the consistent visuals of an image or item impacts your memory of similar items.,Nope,FALSE
NA,image-keyboard-response,21,9,45611,p0vtkkgqpg4,mouse,Nope,null,stimuli/organized/STATE/USED/Sbriefcase1.jpg,memory,FALSE,state,TRUE,NA,NA,NA,/Users/martincz/GitHub/COGS119/group_wi26_massive_memory/analysis/../data/raw_data/p0vtkkgqpg4_1772141591597.csv,21,female,yes,If the consistent visuals of an image or item impacts your memory of similar items.,Nope,FALSE
NA,image-keyboard-response,23,10,49616,p0vtkkgqpg4,mouse,Nope,null,stimuli/organized/EXEMPLAR/USED/Edispenser1.jpg,memory,FALSE,exemplar,TRUE,NA,NA,NA,/Users/martincz/GitHub/COGS119/group_wi26_massive_memory/analysis/../data/raw_data/p0vtkkgqpg4_1772141591597.csv,21,female,yes,If the consistent visuals of an image or item impacts your memory of similar items.,Nope,FALSE
NA,image-keyboard-response,25,11,53621,p0vtkkgqpg4,mouse,Nope,null,stimuli/organized/STATE/USED/Sbrushes2.jpg,memory,FALSE,state,TRUE,NA,NA,NA,/Users/martincz/GitHub/COGS119/group_wi26_massive_memory/analysis/../data/raw_data/p0vtkkgqpg4_1772141591597.csv,21,female,yes,If the consistent visuals of an image or item impacts your memory of similar items.,Nope,FALSE
NA,image-keyboard-response,27,12,57627,p0vtkkgqpg4,mouse,Nope,null,stimuli/organized/STATE/USED/Sjuiceglass2.JPG,memory,FALSE,state,TRUE,NA,NA,NA,/Users/martincz/GitHub/COGS119/group_wi26_massive_memory/analysis/../data/raw_data/p0vtkkgqpg4_1772141591597.csv,21,female,yes,If the consistent visuals of an image or item impacts your memory of similar items.,Nope,FALSE
NA,image-keyboard-response,29,13,61632,p0vtkkgqpg4,mouse,Nope,null,stimuli/organized/STATE/USED/Sfiretrucktoy2.jpg,memory,FALSE,state,TRUE,NA,NA,NA,/Users/martincz/GitHub/COGS119/group_wi26_massive_memory/analysis/../data/raw_data/p0vtkkgqpg4_1772141591597.csv,21,female,yes,If the consistent visuals of an image or item impacts your memory of similar items.,Nope,FALSE
NA,image-keyboard-response,31,14,65636,p0vtkkgqpg4,mouse,Nope,null,stimuli/organized/STATE/USED/Seggs1.jpg,memory,FALSE,state,TRUE,NA,NA,NA,/Users/martincz/GitHub/COGS119/group_wi26_massive_memory/analysis/../data/raw_data/p0vtkkgqpg4_1772141591597.csv,21,female,yes,If the consistent visuals of an image or item impacts your memory of similar items.,Nope,FALSE
NA,image-keyboard-response,33,15,69642,p0vtkkgqpg4,mouse,Nope,null,stimuli/organized/STATE/USED/Sdonut2.jpg,memory,FALSE,state,TRUE,NA,NA,NA,/Users/martincz/GitHub/COGS119/group_wi26_massive_memory/analysis/../data/raw_data/p0vtkkgqpg4_1772141591597.csv,21,female,yes,If the consistent visuals of an image or item impacts your memory of similar items.,Nope,FALSE
NA,image-keyboard-response,35,16,73648,p0vtkkgqpg4,mouse,Nope,null,stimuli/organized/STATE/USED/Sbelt1.jpg,memory,FALSE,state,TRUE,NA,NA,NA,/Users/martincz/GitHub/COGS119/group_wi26_massive_memory/analysis/../data/raw_data/p0vtkkgqpg4_1772141591597.csv,21,female,yes,If the consistent visuals of an image or item impacts your memory of similar items.,Nope,FALSE
NA,image-keyboard-response,37,17,77652,p0vtkkgqpg4,mouse,Nope,null,stimuli/organized/Novel pairs (tested)/n04ayarn.jpg,memory,FALSE,novel,TRUE,NA,NA,NA,/Users/martincz/GitHub/COGS119/group_wi26_massive_memory/analysis/../data/raw_data/p0vtkkgqpg4_1772141591597.csv,21,female,yes,If the consistent visuals of an image or item impacts your memory of similar items.,Nope,FALSE
NA,image-keyboard-response,39,18,81659,p0vtkkgqpg4,mouse,Nope,null,stimuli/organized/STATE/USED/Sdresser1.jpg,memory,FALSE,state,TRUE,NA,NA,NA,/Users/martincz/GitHub/COGS119/group_wi26_massive_memory/analysis/../data/raw_data/p0vtkkgqpg4_1772141591597.csv,21,female,yes,If the consistent visuals of an image or item impacts your memory of similar items.,Nope,FALSE
NA,image-keyboard-response,41,19,85664,p0vtkkgqpg4,mouse,Nope,null,stimuli/organized/STATE/USED/Sgrinder2.jpg,memory,FALSE,state,TRUE,NA,NA,NA,/Users/martincz/GitHub/COGS119/group_wi26_massive_memory/analysis/../data/raw_data/p0vtkkgqpg4_1772141591597.csv,21,female,yes,If the consistent visuals of an image or item impacts your memory of similar items.,Nope,FALSE
NA,image-keyboard-response,43,20,89670,p0vtkkgqpg4,mouse,Nope,null,stimuli/organized/STATE/USED/Spotpan2.JPG,memory,FALSE,state,TRUE,NA,NA,NA,/Users/martincz/GitHub/COGS119/group_wi26_massive_memory/analysis/../data/raw_data/p0vtkkgqpg4_1772141591597.csv,21,female,yes,If the consistent visuals of an image or item impacts your memory of similar items.,Nope,FALSE
NA,image-keyboard-response,45,21,93676,p0vtkkgqpg4,mouse,Nope,null,stimuli/organized/STATE/USED/Sdishes1.JPG,memory,FALSE,state,TRUE,NA,NA,NA,/Users/martincz/GitHub/COGS119/group_wi26_massive_memory/analysis/../data/raw_data/p0vtkkgqpg4_1772141591597.csv,21,female,yes,If the consistent visuals of an image or item impacts your memory of similar items.,Nope,FALSE
NA,image-keyboard-response,47,22,97681,p0vtkkgqpg4,mouse,Nope,null,stimuli/organized/EXEMPLAR/USED/Ebell1.jpg,memory,FALSE,exemplar,TRUE,NA,NA,NA,/Users/martincz/GitHub/COGS119/group_wi26_massive_memory/analysis/../data/raw_data/p0vtkkgqpg4_1772141591597.csv,21,female,yes,If the consistent visuals of an image or item impacts your memory of similar items.,Nope,FALSE
NA,image-keyboard-response,49,23,101687,p0vtkkgqpg4,mouse,Nope,null,stimuli/organized/Novel pairs (tested)/n20acarseat.jpg,memory,FALSE,novel,TRUE,NA,NA,NA,/Users/martincz/GitHub/COGS119/group_wi26_massive_memory/analysis/../data/raw_data/p0vtkkgqpg4_1772141591597.csv,21,female,yes,If the consistent visuals of an image or item impacts your memory of similar items.,Nope,FALSE
NA,image-keyboard-response,51,24,105693,p0vtkkgqpg4,mouse,Nope,null,stimuli/organized/Novel pairs (tested)/n16bhammer.jpg,memory,FALSE,novel,TRUE,NA,NA,NA,/Users/martincz/GitHub/COGS119/group_wi26_massive_memory/analysis/../data/raw_data/p0vtkkgqpg4_1772141591597.csv,21,female,yes,If the consistent visuals of an image or item impacts your memory of similar items.,Nope,FALSE
NA,image-keyboard-response,53,25,109699,p0vtkkgqpg4,mouse,Nope,null,stimuli/organized/EXEMPLAR/USED/Egrapes2.jpg,memory,FALSE,exemplar,TRUE,NA,NA,NA,/Users/martincz/GitHub/COGS119/group_wi26_massive_memory/analysis/../data/raw_data/p0vtkkgqpg4_1772141591597.csv,21,female,yes,If the consistent visuals of an image or item impacts your memory of similar items.,Nope,FALSE
NA,image-keyboard-response,55,26,113705,p0vtkkgqpg4,mouse,Nope,null,stimuli/organized/Novel pairs (tested)/n08bpaperclip.jpg,memory,FALSE,novel,TRUE,NA,NA,NA,/Users/martincz/GitHub/COGS119/group_wi26_massive_memory/analysis/../data/raw_data/p0vtkkgqpg4_1772141591597.csv,21,female,yes,If the consistent visuals of an image or item impacts your memory of similar items.,Nope,FALSE
NA,image-keyboard-response,57,27,117711,p0vtkkgqpg4,mouse,Nope,null,stimuli/organized/STATE/USED/Sdryer2.jpg,memory,FALSE,state,TRUE,NA,NA,NA,/Users/martincz/GitHub/COGS119/group_wi26_massive_memory/analysis/../data/raw_data/p0vtkkgqpg4_1772141591597.csv,21,female,yes,If the consistent visuals of an image or item impacts your memory of similar items.,Nope,FALSE
NA,image-keyboard-response,59,28,121715,p0vtkkgqpg4,mouse,Nope,null,stimuli/organized/STATE/USED/Sbox1.jpg,memory,FALSE,state,TRUE,NA,NA,NA,/Users/martincz/GitHub/COGS119/group_wi26_massive_memory/analysis/../data/raw_data/p0vtkkgqpg4_1772141591597.csv,21,female,yes,If the consistent visuals of an image or item impacts your memory of similar items.,Nope,FALSE
NA,image-keyboard-response,61,29,125721,p0vtkkgqpg4,mouse,Nope,null,stimuli/organized/STATE/USED/Sbreadbox2.JPG,memory,FALSE,state,TRUE,NA,NA,NA,/Users/martincz/GitHub/COGS119/group_wi26_massive_memory/analysis/../data/raw_data/p0vtkkgqpg4_1772141591597.csv,21,female,yes,If the consistent visuals of an image or item impacts your memory of similar items.,Nope,FALSE
NA,image-keyboard-response,63,30,129727,p0vtkkgqpg4,mouse,Nope,null,stimuli/organized/STATE/USED/Sabacus2.jpg,memory,FALSE,state,TRUE,NA,NA,NA,/Users/martincz/GitHub/COGS119/group_wi26_massive_memory/analysis/../data/raw_data/p0vtkkgqpg4_1772141591597.csv,21,female,yes,If the consistent visuals of an image or item impacts your memory of similar items.,Nope,FALSE
NA,image-keyboard-response,65,31,133732,p0vtkkgqpg4,mouse,Nope,null,stimuli/organized/STATE/USED/Sbooks2.JPG,memory,FALSE,state,TRUE,NA,NA,NA,/Users/martincz/GitHub/COGS119/group_wi26_massive_memory/analysis/../data/raw_data/p0vtkkgqpg4_1772141591597.csv,21,female,yes,If the consistent visuals of an image or item impacts your memory of similar items.,Nope,FALSE
NA,image-keyboard-response,67,32,137739,p0vtkkgqpg4,mouse,Nope,null,stimuli/organized/Novel pairs (tested)/n08bpaperclip.jpg,memory,TRUE,novel,FALSE,NA,NA,NA,/Users/martincz/GitHub/COGS119/group_wi26_massive_memory/analysis/../data/raw_data/p0vtkkgqpg4_1772141591597.csv,21,female,yes,If the consistent visuals of an image or item impacts your memory of similar items.,Nope,FALSE
NA,image-keyboard-response,69,33,141744,p0vtkkgqpg4,mouse,Nope,null,stimuli/organized/STATE/USED/Sphone2.JPG,memory,FALSE,state,TRUE,NA,NA,NA,/Users/martincz/GitHub/COGS119/group_wi26_massive_memory/analysis/../data/raw_data/p0vtkkgqpg4_1772141591597.csv,21,female,yes,If the consistent visuals of an image or item impacts your memory of similar items.,Nope,FALSE
NA,image-keyboard-response,71,34,145749,p0vtkkgqpg4,mouse,Nope,null,stimuli/organized/STATE/USED/Sgiftbag2.jpg,memory,FALSE,state,TRUE,NA,NA,NA,/Users/martincz/GitHub/COGS119/group_wi26_massive_memory/analysis/../data/raw_data/p0vtkkgqpg4_1772141591597.csv,21,female,yes,If the consistent visuals of an image or item impacts your memory of similar items.,Nope,FALSE
NA,image-keyboard-response,73,35,149755,p0vtkkgqpg4,mouse,Nope,null,stimuli/organized/EXEMPLAR/USED/Ecalculator2.jpg,memory,FALSE,exemplar,TRUE,NA,NA,NA,/Users/martincz/GitHub/COGS119/group_wi26_massive_memory/analysis/../data/raw_data/p0vtkkgqpg4_1772141591597.csv,21,female,yes,If the consistent visuals of an image or item impacts your memory of similar items.,Nope,FALSE
NA,image-keyboard-response,75,36,153760,p0vtkkgqpg4,mouse,Nope,null,stimuli/organized/STATE/USED/Shairbrush1.jpg,memory,FALSE,state,TRUE,NA,NA,NA,/Users/martincz/GitHub/COGS119/group_wi26_massive_memory/analysis/../data/raw_data/p0vtkkgqpg4_1772141591597.csv,21,female,yes,If the consistent visuals of an image or item impacts your memory of similar items.,Nope,FALSE
NA,image-keyboard-response,77,37,157766,p0vtkkgqpg4,mouse,Nope,null,stimuli/organized/EXEMPLAR/USED/Efan2.jpg,memory,FALSE,exemplar,TRUE,NA,NA,NA,/Users/martincz/GitHub/COGS119/group_wi26_massive_memory/analysis/../data/raw_data/p0vtkkgqpg4_1772141591597.csv,21,female,yes,If the consistent visuals of an image or item impacts your memory of similar items.,Nope,FALSE
NA,image-keyboard-response,79,38,161771,p0vtkkgqpg4,mouse,Nope,null,stimuli/organized/STATE/USED/Slaptop1.JPG,memory,FALSE,state,TRUE,NA,NA,NA,/Users/martincz/GitHub/COGS119/group_wi26_massive_memory/analysis/../data/raw_data/p0vtkkgqpg4_1772141591597.csv,21,female,yes,If the consistent visuals of an image or item impacts your memory of similar items.,Nope,FALSE
NA,image-keyboard-response,81,39,165777,p0vtkkgqpg4,mouse,Nope,null,stimuli/organized/EXEMPLAR/USED/Eframe1.jpg,memory,FALSE,exemplar,TRUE,NA,NA,NA,/Users/martincz/GitHub/COGS119/group_wi26_massive_memory/analysis/../data/raw_data/p0vtkkgqpg4_1772141591597.csv,21,female,yes,If the consistent visuals of an image or item impacts your memory of similar items.,Nope,FALSE
NA,image-keyboard-response,83,40,169782,p0vtkkgqpg4,mouse,Nope,null,stimuli/organized/EXEMPLAR/USED/Ecar2.jpg,memory,FALSE,exemplar,TRUE,NA,NA,NA,/Users/martincz/GitHub/COGS119/group_wi26_massive_memory/analysis/../data/raw_data/p0vtkkgqpg4_1772141591597.csv,21,female,yes,If the consistent visuals of an image or item impacts your memory of similar items.,Nope,FALSE
NA,image-keyboard-response,85,41,173787,p0vtkkgqpg4,mouse,Nope,null,stimuli/organized/EXEMPLAR/USED/Ecabinet2.jpg,memory,FALSE,exemplar,TRUE,NA,NA,NA,/Users/martincz/GitHub/COGS119/group_wi26_massive_memory/analysis/../data/raw_data/p0vtkkgqpg4_1772141591597.csv,21,female,yes,If the consistent visuals of an image or item impacts your memory of similar items.,Nope,FALSE
NA,image-keyboard-response,87,42,177793,p0vtkkgqpg4,mouse,Nope,null,stimuli/organized/Novel pairs (tested)/n12atelescope.jpg,memory,FALSE,novel,TRUE,NA,NA,NA,/Users/martincz/GitHub/COGS119/group_wi26_massive_memory/analysis/../data/raw_data/p0vtkkgqpg4_1772141591597.csv,21,female,yes,If the consistent visuals of an image or item impacts your memory of similar items.,Nope,FALSE
NA,image-keyboard-response,89,43,181798,p0vtkkgqpg4,mouse,Nope,null,stimuli/organized/EXEMPLAR/USED/Echocolatebar2.jpg,memory,FALSE,exemplar,TRUE,NA,NA,NA,/Users/martincz/GitHub/COGS119/group_wi26_massive_memory/analysis/../data/raw_data/p0vtkkgqpg4_1772141591597.csv,21,female,yes,If the consistent visuals of an image or item impacts your memory of similar items.,Nope,FALSE
NA,image-keyboard-response,91,44,185804,p0vtkkgqpg4,mouse,Nope,null,stimuli/organized/STATE/USED/Sdie1.jpg,memory,FALSE,state,TRUE,NA,NA,NA,/Users/martincz/GitHub/COGS119/group_wi26_massive_memory/analysis/../data/raw_data/p0vtkkgqpg4_1772141591597.csv,21,female,yes,If the consistent visuals of an image or item impacts your memory of similar items.,Nope,FALSE
NA,image-keyboard-response,93,45,189810,p0vtkkgqpg4,mouse,Nope,null,stimuli/organized/EXEMPLAR/USED/Ebracelet2.jpg,memory,FALSE,exemplar,TRUE,NA,NA,NA,/Users/martincz/GitHub/COGS119/group_wi26_massive_memory/analysis/../data/raw_data/p0vtkkgqpg4_1772141591597.csv,21,female,yes,If the consistent visuals of an image or item impacts your memory of similar items.,Nope,FALSE
NA,image-keyboard-response,95,46,193816,p0vtkkgqpg4,mouse,Nope,null,stimuli/organized/Novel pairs (tested)/n11abatteries.jpg,memory,FALSE,novel,TRUE,NA,NA,NA,/Users/martincz/GitHub/COGS119/group_wi26_massive_memory/analysis/../data/raw_data/p0vtkkgqpg4_1772141591597.csv,21,female,yes,If the consistent visuals of an image or item impacts your memory of similar items.,Nope,FALSE
NA,image-keyboard-response,97,47,197822,p0vtkkgqpg4,mouse,Nope,null,stimuli/organized/Novel pairs (tested)/n06acane.jpg,memory,FALSE,novel,TRUE,NA,NA,NA,/Users/martincz/GitHub/COGS119/group_wi26_massive_memory/analysis/../data/raw_data/p0vtkkgqpg4_1772141591597.csv,21,female,yes,If the consistent visuals of an image or item impacts your memory of similar items.,Nope,FALSE
NA,image-keyboard-response,99,48,201827,p0vtkkgqpg4,mouse,Nope,null,stimuli/organized/Novel pairs (tested)/n18bsnail.jpg,memory,FALSE,novel,TRUE,NA,NA,NA,/Users/martincz/GitHub/COGS119/group_wi26_massive_memory/analysis/../data/raw_data/p0vtkkgqpg4_1772141591597.csv,21,female,yes,If the consistent visuals of an image or item impacts your memory of similar items.,Nope,FALSE
NA,image-keyboard-response,101,49,205832,p0vtkkgqpg4,mouse,Nope,null,stimuli/organized/EXEMPLAR/USED/Egame2.jpg,memory,FALSE,exemplar,TRUE,NA,NA,NA,/Users/martincz/GitHub/COGS119/group_wi26_massive_memory/analysis/../data/raw_data/p0vtkkgqpg4_1772141591597.csv,21,female,yes,If the consistent visuals of an image or item impacts your memory of similar items.,Nope,FALSE
NA,image-keyboard-response,103,50,209838,p0vtkkgqpg4,mouse,Nope,null,stimuli/organized/EXEMPLAR/USED/Eglobe1.jpg,memory,FALSE,exemplar,TRUE,NA,NA,NA,/Users/martincz/GitHub/COGS119/group_wi26_massive_memory/analysis/../data/raw_data/p0vtkkgqpg4_1772141591597.csv,21,female,yes,If the consistent visuals of an image or item impacts your memory of similar items.,Nope,FALSE
1959,image-keyboard-response,105,51,213843,p0vtkkgqpg4,mouse,Nope,NA,stimuli/organized/STATE/USED/Sgrinder2.jpg,memory,TRUE,state,TRUE,NA,NA,NA,/Users/martincz/GitHub/COGS119/group_wi26_massive_memory/analysis/../data/raw_data/p0vtkkgqpg4_1772141591597.csv,21,female,yes,If the consistent visuals of an image or item impacts your memory of similar items.,Nope,FALSE
NA,image-keyboard-response,107,52,217849,p0vtkkgqpg4,mouse,Nope,null,stimuli/organized/STATE/USED/Scontainer2.JPG,memory,FALSE,state,TRUE,NA,NA,NA,/Users/martincz/GitHub/COGS119/group_wi26_massive_memory/analysis/../data/raw_data/p0vtkkgqpg4_1772141591597.csv,21,female,yes,If the consistent visuals of an image or item impacts your memory of similar items.,Nope,FALSE
NA,image-keyboard-response,109,53,221854,p0vtkkgqpg4,mouse,Nope,null,stimuli/organized/STATE/USED/Sscissors1.JPG,memory,FALSE,state,TRUE,NA,NA,NA,/Users/martincz/GitHub/COGS119/group_wi26_massive_memory/analysis/../data/raw_data/p0vtkkgqpg4_1772141591597.csv,21,female,yes,If the consistent visuals of an image or item impacts your memory of similar items.,Nope,FALSE
NA,image-keyboard-response,111,54,225857,p0vtkkgqpg4,mouse,Nope,null,stimuli/organized/STATE/USED/Sflask1.jpg,memory,FALSE,state,TRUE,NA,NA,NA,/Users/martincz/GitHub/COGS119/group_wi26_massive_memory/analysis/../data/raw_data/p0vtkkgqpg4_1772141591597.csv,21,female,yes,If the consistent visuals of an image or item impacts your memory of similar items.,Nope,FALSE
NA,image-keyboard-response,113,55,229863,p0vtkkgqpg4,mouse,Nope,null,stimuli/organized/Novel pairs (tested)/n10awindmill.jpg,memory,FALSE,novel,TRUE,NA,NA,NA,/Users/martincz/GitHub/COGS119/group_wi26_massive_memory/analysis/../data/raw_data/p0vtkkgqpg4_1772141591597.csv,21,female,yes,If the consistent visuals of an image or item impacts your memory of similar items.,Nope,FALSE
NA,image-keyboard-response,115,56,233869,p0vtkkgqpg4,mouse,Nope,null,stimuli/organized/EXEMPLAR/USED/Econe2.jpg,memory,FALSE,exemplar,TRUE,NA,NA,NA,/Users/martincz/GitHub/COGS119/group_wi26_massive_memory/analysis/../data/raw_data/p0vtkkgqpg4_1772141591597.csv,21,female,yes,If the consistent visuals of an image or item impacts your memory of similar items.,Nope,FALSE
NA,image-keyboard-response,117,57,237875,p0vtkkgqpg4,mouse,Nope,null,stimuli/organized/Novel pairs (tested)/n02aaxe.jpg,memory,FALSE,novel,TRUE,NA,NA,NA,/Users/martincz/GitHub/COGS119/group_wi26_massive_memory/analysis/../data/raw_data/p0vtkkgqpg4_1772141591597.csv,21,female,yes,If the consistent visuals of an image or item impacts your memory of similar items.,Nope,FALSE
NA,image-keyboard-response,119,58,241881,p0vtkkgqpg4,mouse,Nope,null,stimuli/organized/Novel pairs (tested)/n13bdustpan.jpg,memory,FALSE,novel,TRUE,NA,NA,NA,/Users/martincz/GitHub/COGS119/group_wi26_massive_memory/analysis/../data/raw_data/p0vtkkgqpg4_1772141591597.csv,21,female,yes,If the consistent visuals of an image or item impacts your memory of similar items.,Nope,FALSE
NA,image-keyboard-response,121,59,245886,p0vtkkgqpg4,mouse,Nope,null,stimuli/organized/STATE/USED/Scrayons1.jpg,memory,FALSE,state,TRUE,NA,NA,NA,/Users/martincz/GitHub/COGS119/group_wi26_massive_memory/analysis/../data/raw_data/p0vtkkgqpg4_1772141591597.csv,21,female,yes,If the consistent visuals of an image or item impacts your memory of similar items.,Nope,FALSE
NA,image-keyboard-response,123,60,249891,p0vtkkgqpg4,mouse,Nope,null,stimuli/organized/Novel pairs (tested)/n19apickle.jpg,memory,FALSE,novel,TRUE,NA,NA,NA,/Users/martincz/GitHub/COGS119/group_wi26_massive_memory/analysis/../data/raw_data/p0vtkkgqpg4_1772141591597.csv,21,female,yes,If the consistent visuals of an image or item impacts your memory of similar items.,Nope,FALSE
NA,image-keyboard-response,125,61,253896,p0vtkkgqpg4,mouse,Nope,null,stimuli/organized/STATE/USED/Schinesefoodbox1.jpg,memory,FALSE,state,TRUE,NA,NA,NA,/Users/martincz/GitHub/COGS119/group_wi26_massive_memory/analysis/../data/raw_data/p0vtkkgqpg4_1772141591597.csv,21,female,yes,If the consistent visuals of an image or item impacts your memory of similar items.,Nope,FALSE
NA,image-keyboard-response,127,62,257902,p0vtkkgqpg4,mouse,Nope,null,stimuli/organized/STATE/USED/Sscanner2.JPG,memory,FALSE,state,TRUE,NA,NA,NA,/Users/martincz/GitHub/COGS119/group_wi26_massive_memory/analysis/../data/raw_data/p0vtkkgqpg4_1772141591597.csv,21,female,yes,If the consistent visuals of an image or item impacts your memory of similar items.,Nope,FALSE
NA,image-keyboard-response,129,63,261907,p0vtkkgqpg4,mouse,Nope,null,stimuli/organized/STATE/USED/Scoffeemaker1.JPG,memory,FALSE,state,TRUE,NA,NA,NA,/Users/martincz/GitHub/COGS119/group_wi26_massive_memory/analysis/../data/raw_data/p0vtkkgqpg4_1772141591597.csv,21,female,yes,If the consistent visuals of an image or item impacts your memory of similar items.,Nope,FALSE
NA,image-keyboard-response,131,64,265912,p0vtkkgqpg4,mouse,Nope,null,stimuli/organized/STATE/USED/Sdrum1.jpg,memory,FALSE,state,TRUE,NA,NA,NA,/Users/martincz/GitHub/COGS119/group_wi26_massive_memory/analysis/../data/raw_data/p0vtkkgqpg4_1772141591597.csv,21,female,yes,If the consistent visuals of an image or item impacts your memory of similar items.,Nope,FALSE
NA,image-keyboard-response,133,65,269917,p0vtkkgqpg4,mouse,Nope,null,stimuli/organized/EXEMPLAR/USED/Efeather1.jpg,memory,FALSE,exemplar,TRUE,NA,NA,NA,/Users/martincz/GitHub/COGS119/group_wi26_massive_memory/analysis/../data/raw_data/p0vtkkgqpg4_1772141591597.csv,21,female,yes,If the consistent visuals of an image or item impacts your memory of similar items.,Nope,FALSE
1253,image-keyboard-response,135,66,273923,p0vtkkgqpg4,mouse,Nope,NA,stimuli/organized/EXEMPLAR/USED/Eglobe1.jpg,memory,TRUE,exemplar,TRUE,NA,NA,NA,/Users/martincz/GitHub/COGS119/group_wi26_massive_memory/analysis/../data/raw_data/p0vtkkgqpg4_1772141591597.csv,21,female,yes,If the consistent visuals of an image or item impacts your memory of similar items.,Nope,FALSE
NA,image-keyboard-response,137,67,277928,p0vtkkgqpg4,mouse,Nope,null,stimuli/organized/Novel pairs (tested)/n09apenguin.jpg,memory,FALSE,novel,TRUE,NA,NA,NA,/Users/martincz/GitHub/COGS119/group_wi26_massive_memory/analysis/../data/raw_data/p0vtkkgqpg4_1772141591597.csv,21,female,yes,If the consistent visuals of an image or item impacts your memory of similar items.,Nope,FALSE
NA,image-keyboard-response,139,68,281934,p0vtkkgqpg4,mouse,Nope,null,stimuli/organized/Novel pairs (tested)/n03acamel.jpg,memory,FALSE,novel,TRUE,NA,NA,NA,/Users/martincz/GitHub/COGS119/group_wi26_massive_memory/analysis/../data/raw_data/p0vtkkgqpg4_1772141591597.csv,21,female,yes,If the consistent visuals of an image or item impacts your memory of similar items.,Nope,FALSE
NA,image-keyboard-response,141,69,285940,p0vtkkgqpg4,mouse,Nope,null,stimuli/organized/Novel pairs (tested)/n01aladybug.jpg,memory,FALSE,novel,TRUE,NA,NA,NA,/Users/martincz/GitHub/COGS119/group_wi26_massive_memory/analysis/../data/raw_data/p0vtkkgqpg4_1772141591597.csv,21,female,yes,If the consistent visuals of an image or item impacts your memory of similar items.,Nope,FALSE
1171,image-keyboard-response,143,70,289945,p0vtkkgqpg4,mouse,Nope,NA,stimuli/organized/Novel pairs (tested)/n15bfootball.jpg,memory,TRUE,novel,TRUE,NA,NA,NA,/Users/martincz/GitHub/COGS119/group_wi26_massive_memory/analysis/../data/raw_data/p0vtkkgqpg4_1772141591597.csv,21,female,yes,If the consistent visuals of an image or item impacts your memory of similar items.,Nope,FALSE
NA,image-keyboard-response,145,71,293950,p0vtkkgqpg4,mouse,Nope,null,stimuli/organized/EXEMPLAR/USED/Echisel2.jpg,memory,FALSE,exemplar,TRUE,NA,NA,NA,/Users/martincz/GitHub/COGS119/group_wi26_massive_memory/analysis/../data/raw_data/p0vtkkgqpg4_1772141591597.csv,21,female,yes,If the consistent visuals of an image or item impacts your memory of similar items.,Nope,FALSE
NA,image-keyboard-response,147,72,297956,p0vtkkgqpg4,mouse,Nope,null,stimuli/organized/STATE/USED/Spie2.JPG,memory,FALSE,state,TRUE,NA,NA,NA,/Users/martincz/GitHub/COGS119/group_wi26_massive_memory/analysis/../data/raw_data/p0vtkkgqpg4_1772141591597.csv,21,female,yes,If the consistent visuals of an image or item impacts your memory of similar items.,Nope,FALSE
NA,image-keyboard-response,149,73,301962,p0vtkkgqpg4,mouse,Nope,null,stimuli/organized/EXEMPLAR/USED/Ebread1.jpg,memory,FALSE,exemplar,TRUE,NA,NA,NA,/Users/martincz/GitHub/COGS119/group_wi26_massive_memory/analysis/../data/raw_data/p0vtkkgqpg4_1772141591597.csv,21,female,yes,If the consistent visuals of an image or item impacts your memory of similar items.,Nope,FALSE
NA,image-keyboard-response,151,74,305966,p0vtkkgqpg4,mouse,Nope,null,stimuli/organized/EXEMPLAR/USED/Egoggles1.jpg,memory,FALSE,exemplar,TRUE,NA,NA,NA,/Users/martincz/GitHub/COGS119/group_wi26_massive_memory/analysis/../data/raw_data/p0vtkkgqpg4_1772141591597.csv,21,female,yes,If the consistent visuals of an image or item impacts your memory of similar items.,Nope,FALSE
NA,image-keyboard-response,153,75,309972,p0vtkkgqpg4,mouse,Nope,null,stimuli/organized/Novel pairs (tested)/n05abarrel.jpg,memory,FALSE,novel,TRUE,NA,NA,NA,/Users/martincz/GitHub/COGS119/group_wi26_massive_memory/analysis/../data/raw_data/p0vtkkgqpg4_1772141591597.csv,21,female,yes,If the consistent visuals of an image or item impacts your memory of similar items.,Nope,FALSE
NA,image-keyboard-response,155,76,313977,p0vtkkgqpg4,mouse,Nope,null,stimuli/organized/STATE/USED/Sbabytoy1.JPG,memory,FALSE,state,TRUE,NA,NA,NA,/Users/martincz/GitHub/COGS119/group_wi26_massive_memory/analysis/../data/raw_data/p0vtkkgqpg4_1772141591597.csv,21,female,yes,If the consistent visuals of an image or item impacts your memory of similar items.,Nope,FALSE
NA,image-keyboard-response,157,77,317982,p0vtkkgqpg4,mouse,Nope,null,stimuli/organized/STATE/USED/Sbureau2.JPG,memory,FALSE,state,TRUE,NA,NA,NA,/Users/martincz/GitHub/COGS119/group_wi26_massive_memory/analysis/../data/raw_data/p0vtkkgqpg4_1772141591597.csv,21,female,yes,If the consistent visuals of an image or item impacts your memory of similar items.,Nope,FALSE
NA,image-keyboard-response,159,78,321988,p0vtkkgqpg4,mouse,Nope,null,stimuli/organized/STATE/USED/Scookies2.JPG,memory,FALSE,state,TRUE,NA,NA,NA,/Users/martincz/GitHub/COGS119/group_wi26_massive_memory/analysis/../data/raw_data/p0vtkkgqpg4_1772141591597.csv,21,female,yes,If the consistent visuals of an image or item impacts your memory of similar items.,Nope,FALSE
NA,image-keyboard-response,161,79,325992,p0vtkkgqpg4,mouse,Nope,null,stimuli/organized/Novel pairs (tested)/n14acigarette.jpg,memory,FALSE,novel,TRUE,NA,NA,NA,/Users/martincz/GitHub/COGS119/group_wi26_massive_memory/analysis/../data/raw_data/p0vtkkgqpg4_1772141591597.csv,21,female,yes,If the consistent visuals of an image or item impacts your memory of similar items.,Nope,FALSE
NA,image-keyboard-response,163,80,329998,p0vtkkgqpg4,mouse,Nope,null,stimuli/organized/Novel pairs (tested)/n17bweddingdress.jpg,memory,FALSE,novel,TRUE,NA,NA,NA,/Users/martincz/GitHub/COGS119/group_wi26_massive_memory/analysis/../data/raw_data/p0vtkkgqpg4_1772141591597.csv,21,female,yes,If the consistent visuals of an image or item impacts your memory of similar items.,Nope,FALSE
1432,image-keyboard-response,165,81,334004,p0vtkkgqpg4,mouse,Nope,NA,stimuli/organized/STATE/USED/Sbabytoy1.JPG,memory,TRUE,state,TRUE,NA,NA,NA,/Users/martincz/GitHub/COGS119/group_wi26_massive_memory/analysis/../data/raw_data/p0vtkkgqpg4_1772141591597.csv,21,female,yes,If the consistent visuals of an image or item impacts your memory of similar items.,Nope,FALSE
1451,html-button-response,168,82,342639,p0vtkkgqpg4,mouse,Nope,1,Which of these items did you see earlier?,test,NA,exemplar,TRUE,stimuli/organized/EXEMPLAR/USED/Eglobe1.jpg,stimuli/organized/EXEMPLAR/USED/Eglobe2.jpg,1,/Users/martincz/GitHub/COGS119/group_wi26_massive_memory/analysis/../data/raw_data/p0vtkkgqpg4_1772141591597.csv,21,female,yes,If the consistent visuals of an image or item impacts your memory of similar items.,Nope,FALSE
1723,html-button-response,169,83,344364,p0vtkkgqpg4,mouse,Nope,1,Which of these items did you see earlier?,test,NA,state,TRUE,stimuli/organized/STATE/USED/Sdrum1.jpg,stimuli/organized/STATE/USED/Sdrum2.jpg,1,/Users/martincz/GitHub/COGS119/group_wi26_massive_memory/analysis/../data/raw_data/p0vtkkgqpg4_1772141591597.csv,21,female,yes,If the consistent visuals of an image or item impacts your memory of similar items.,Nope,FALSE
1161,html-button-response,170,84,345526,p0vtkkgqpg4,mouse,Nope,0,Which of these items did you see earlier?,test,NA,state,TRUE,stimuli/organized/STATE/USED/Sbox1.jpg,stimuli/organized/STATE/USED/Sbox2.jpg,0,/Users/martincz/GitHub/COGS119/group_wi26_massive_memory/analysis/../data/raw_data/p0vtkkgqpg4_1772141591597.csv,21,female,yes,If the consistent visuals of an image or item impacts your memory of similar items.,Nope,FALSE
2194,html-button-response,171,85,347722,p0vtkkgqpg4,mouse,Nope,1,Which of these items did you see earlier?,test,NA,exemplar,TRUE,stimuli/organized/EXEMPLAR/USED/Efan2.jpg,stimuli/organized/EXEMPLAR/USED/Efan1.jpg,1,/Users/martincz/GitHub/COGS119/group_wi26_massive_memory/analysis/../data/raw_data/p0vtkkgqpg4_1772141591597.csv,21,female,yes,If the consistent visuals of an image or item impacts your memory of similar items.,Nope,FALSE
1086,html-button-response,172,86,348810,p0vtkkgqpg4,mouse,Nope,0,Which of these items did you see earlier?,test,NA,exemplar,TRUE,stimuli/organized/EXEMPLAR/USED/Ebracelet2.jpg,stimuli/organized/EXEMPLAR/USED/Ebracelet1.jpg,0,/Users/martincz/GitHub/COGS119/group_wi26_massive_memory/analysis/../data/raw_data/p0vtkkgqpg4_1772141591597.csv,21,female,yes,If the consistent visuals of an image or item impacts your memory of similar items.,Nope,FALSE
1469,html-button-response,173,87,350281,p0vtkkgqpg4,mouse,Nope,1,Which of these items did you see earlier?,test,NA,state,TRUE,stimuli/organized/STATE/USED/Sjuiceglass2.JPG,stimuli/organized/STATE/USED/Sjuiceglass1.JPG,1,/Users/martincz/GitHub/COGS119/group_wi26_massive_memory/analysis/../data/raw_data/p0vtkkgqpg4_1772141591597.csv,21,female,yes,If the consistent visuals of an image or item impacts your memory of similar items.,Nope,FALSE
1482,html-button-response,174,88,351764,p0vtkkgqpg4,mouse,Nope,0,Which of these items did you see earlier?,test,NA,novel,TRUE,stimuli/organized/Novel pairs (tested)/n13bdustpan.jpg,stimuli/organized/Novel pairs (tested)/n13ablueberries.jpg,0,/Users/martincz/GitHub/COGS119/group_wi26_massive_memory/analysis/../data/raw_data/p0vtkkgqpg4_1772141591597.csv,21,female,yes,If the consistent visuals of an image or item impacts your memory of similar items.,Nope,FALSE
1365,html-button-response,175,89,353130,p0vtkkgqpg4,mouse,Nope,0,Which of these items did you see earlier?,test,NA,state,TRUE,stimuli/organized/STATE/USED/Sgrinder2.jpg,stimuli/organized/STATE/USED/Sgrinder1.jpg,0,/Users/martincz/GitHub/COGS119/group_wi26_massive_memory/analysis/../data/raw_data/p0vtkkgqpg4_1772141591597.csv,21,female,yes,If the consistent visuals of an image or item impacts your memory of similar items.,Nope,FALSE
1450,html-button-response,176,90,354581,p0vtkkgqpg4,mouse,Nope,0,Which of these items did you see earlier?,test,NA,novel,TRUE,stimuli/organized/Novel pairs (tested)/n12atelescope.jpg,stimuli/organized/Novel pairs (tested)/n12bwatch.jpg,0,/Users/martincz/GitHub/COGS119/group_wi26_massive_memory/analysis/../data/raw_data/p0vtkkgqpg4_1772141591597.csv,21,female,yes,If the consistent visuals of an image or item impacts your memory of similar items.,Nope,FALSE
1244,html-button-response,177,91,355826,p0vtkkgqpg4,mouse,Nope,1,Which of these items did you see earlier?,test,NA,exemplar,TRUE,stimuli/organized/EXEMPLAR/USED/Ebread1.jpg,stimuli/organized/EXEMPLAR/USED/Ebread2.jpg,1,/Users/martincz/GitHub/COGS119/group_wi26_massive_memory/analysis/../data/raw_data/p0vtkkgqpg4_1772141591597.csv,21,female,yes,If the consistent visuals of an image or item impacts your memory of similar items.,Nope,FALSE
1791,html-button-response,178,92,357618,p0vtkkgqpg4,mouse,Nope,0,Which of these items did you see earlier?,test,NA,state,TRUE,stimuli/organized/STATE/USED/Sbottles2.JPG,stimuli/organized/STATE/USED/Sbottles1.JPG,0,/Users/martincz/GitHub/COGS119/group_wi26_massive_memory/analysis/../data/raw_data/p0vtkkgqpg4_1772141591597.csv,21,female,yes,If the consistent visuals of an image or item impacts your memory of similar items.,Nope,FALSE
2219,html-button-response,179,93,359838,p0vtkkgqpg4,mouse,Nope,0,Which of these items did you see earlier?,test,NA,state,TRUE,stimuli/organized/STATE/USED/Scoffeemaker1.JPG,stimuli/organized/STATE/USED/Scoffeemaker2.JPG,0,/Users/martincz/GitHub/COGS119/group_wi26_massive_memory/analysis/../data/raw_data/p0vtkkgqpg4_1772141591597.csv,21,female,yes,If the consistent visuals of an image or item impacts your memory of similar items.,Nope,FALSE
1528,html-button-response,180,94,361368,p0vtkkgqpg4,mouse,Nope,0,Which of these items did you see earlier?,test,NA,novel,TRUE,stimuli/organized/Novel pairs (tested)/n07bswimmingpool.jpg,stimuli/organized/Novel pairs (tested)/n07apotato.jpg,0,/Users/martincz/GitHub/COGS119/group_wi26_massive_memory/analysis/../data/raw_data/p0vtkkgqpg4_1772141591597.csv,21,female,yes,If the consistent visuals of an image or item impacts your memory of similar items.,Nope,FALSE
2198,html-button-response,181,95,363567,p0vtkkgqpg4,mouse,Nope,1,Which of these items did you see earlier?,test,NA,state,TRUE,stimuli/organized/STATE/USED/Sgiftbag2.jpg,stimuli/organized/STATE/USED/Sgiftbag1.jpg,1,/Users/martincz/GitHub/COGS119/group_wi26_massive_memory/analysis/../data/raw_data/p0vtkkgqpg4_1772141591597.csv,21,female,yes,If the consistent visuals of an image or item impacts your memory of similar items.,Nope,FALSE
1466,html-button-response,182,96,365035,p0vtkkgqpg4,mouse,Nope,1,Which of these items did you see earlier?,test,NA,state,TRUE,stimuli/organized/STATE/USED/Sdie1.jpg,stimuli/organized/STATE/USED/Sdie2.jpg,1,/Users/martincz/GitHub/COGS119/group_wi26_massive_memory/analysis/../data/raw_data/p0vtkkgqpg4_1772141591597.csv,21,female,yes,If the consistent visuals of an image or item impacts your memory of similar items.,Nope,FALSE
2281,html-button-response,183,97,367318,p0vtkkgqpg4,mouse,Nope,1,Which of these items did you see earlier?,test,NA,exemplar,FALSE,stimuli/organized/EXEMPLAR/USED/Ecar2.jpg,stimuli/organized/EXEMPLAR/USED/Ecar1.jpg,0,/Users/martincz/GitHub/COGS119/group_wi26_massive_memory/analysis/../data/raw_data/p0vtkkgqpg4_1772141591597.csv,21,female,yes,If the consistent visuals of an image or item impacts your memory of similar items.,Nope,FALSE
1481,html-button-response,184,98,368801,p0vtkkgqpg4,mouse,Nope,0,Which of these items did you see earlier?,test,NA,state,TRUE,stimuli/organized/STATE/USED/Schinesefoodbox1.jpg,stimuli/organized/STATE/USED/Schinesefoodbox2.jpg,0,/Users/martincz/GitHub/COGS119/group_wi26_massive_memory/analysis/../data/raw_data/p0vtkkgqpg4_1772141591597.csv,21,female,yes,If the consistent visuals of an image or item impacts your memory of similar items.,Nope,FALSE
1765,html-button-response,185,99,370567,p0vtkkgqpg4,mouse,Nope,0,Which of these items did you see earlier?,test,NA,state,FALSE,stimuli/organized/STATE/USED/Sapplesgreenbasket2.jpg,stimuli/organized/STATE/USED/Sapplesgreenbasket1.jpg,1,/Users/martincz/GitHub/COGS119/group_wi26_massive_memory/analysis/../data/raw_data/p0vtkkgqpg4_1772141591597.csv,21,female,yes,If the consistent visuals of an image or item impacts your memory of similar items.,Nope,FALSE
1532,html-button-response,186,100,372101,p0vtkkgqpg4,mouse,Nope,0,Which of these items did you see earlier?,test,NA,state,TRUE,stimuli/organized/STATE/USED/Sdonut2.jpg,stimuli/organized/STATE/USED/Sdonut1.jpg,0,/Users/martincz/GitHub/COGS119/group_wi26_massive_memory/analysis/../data/raw_data/p0vtkkgqpg4_1772141591597.csv,21,female,yes,If the consistent visuals of an image or item impacts your memory of similar items.,Nope,FALSE
1232,html-button-response,187,101,373334,p0vtkkgqpg4,mouse,Nope,1,Which of these items did you see earlier?,test,NA,novel,TRUE,stimuli/organized/Novel pairs (tested)/n18bsnail.jpg,stimuli/organized/Novel pairs (tested)/n18apretzel.jpg,1,/Users/martincz/GitHub/COGS119/group_wi26_massive_memory/analysis/../data/raw_data/p0vtkkgqpg4_1772141591597.csv,21,female,yes,If the consistent visuals of an image or item impacts your memory of similar items.,Nope,FALSE
1232,html-button-response,188,102,374568,p0vtkkgqpg4,mouse,Nope,1,Which of these items did you see earlier?,test,NA,novel,TRUE,stimuli/organized/Novel pairs (tested)/n02aaxe.jpg,stimuli/organized/Novel pairs (tested)/n02bsafetypin.jpg,1,/Users/martincz/GitHub/COGS119/group_wi26_massive_memory/analysis/../data/raw_data/p0vtkkgqpg4_1772141591597.csv,21,female,yes,If the consistent visuals of an image or item impacts your memory of similar items.,Nope,FALSE
1582,html-button-response,189,103,376151,p0vtkkgqpg4,mouse,Nope,0,Which of these items did you see earlier?,test,NA,novel,TRUE,stimuli/organized/Novel pairs (tested)/n11abatteries.jpg,stimuli/organized/Novel pairs (tested)/n11bsock.jpg,0,/Users/martincz/GitHub/COGS119/group_wi26_massive_memory/analysis/../data/raw_data/p0vtkkgqpg4_1772141591597.csv,21,female,yes,If the consistent visuals of an image or item impacts your memory of similar items.,Nope,FALSE
2998,html-button-response,190,104,379151,p0vtkkgqpg4,mouse,Nope,0,Which of these items did you see earlier?,test,NA,state,FALSE,stimuli/organized/STATE/USED/Seggs1.jpg,stimuli/organized/STATE/USED/Seggs2.jpg,1,/Users/martincz/GitHub/COGS119/group_wi26_massive_memory/analysis/../data/raw_data/p0vtkkgqpg4_1772141591597.csv,21,female,yes,If the consistent visuals of an image or item impacts your memory of similar items.,Nope,FALSE
1432,html-button-response,191,105,380584,p0vtkkgqpg4,mouse,Nope,0,Which of these items did you see earlier?,test,NA,novel,TRUE,stimuli/organized/Novel pairs (tested)/n14acigarette.jpg,stimuli/organized/Novel pairs (tested)/n14bgolfball.jpg,0,/Users/martincz/GitHub/COGS119/group_wi26_massive_memory/analysis/../data/raw_data/p0vtkkgqpg4_1772141591597.csv,21,female,yes,If the consistent visuals of an image or item impacts your memory of similar items.,Nope,FALSE
1349,html-button-response,192,106,381934,p0vtkkgqpg4,mouse,Nope,0,Which of these items did you see earlier?,test,NA,novel,TRUE,stimuli/organized/Novel pairs (tested)/n17bweddingdress.jpg,stimuli/organized/Novel pairs (tested)/n17avendingmachine.jpg,0,/Users/martincz/GitHub/COGS119/group_wi26_massive_memory/analysis/../data/raw_data/p0vtkkgqpg4_1772141591597.csv,21,female,yes,If the consistent visuals of an image or item impacts your memory of similar items.,Nope,FALSE
1516,html-button-response,193,107,383451,p0vtkkgqpg4,mouse,Nope,1,Which of these items did you see earlier?,test,NA,novel,TRUE,stimuli/organized/Novel pairs (tested)/n05abarrel.jpg,stimuli/organized/Novel pairs (tested)/n05bcactus.jpg,1,/Users/martincz/GitHub/COGS119/group_wi26_massive_memory/analysis/../data/raw_data/p0vtkkgqpg4_1772141591597.csv,21,female,yes,If the consistent visuals of an image or item impacts your memory of similar items.,Nope,FALSE
2419,html-button-response,194,108,385871,p0vtkkgqpg4,mouse,Nope,0,Which of these items did you see earlier?,test,NA,exemplar,TRUE,stimuli/organized/EXEMPLAR/USED/Ebell1.jpg,stimuli/organized/EXEMPLAR/USED/Ebell2.jpg,0,/Users/martincz/GitHub/COGS119/group_wi26_massive_memory/analysis/../data/raw_data/p0vtkkgqpg4_1772141591597.csv,21,female,yes,If the consistent visuals of an image or item impacts your memory of similar items.,Nope,FALSE
1333,html-button-response,195,109,387205,p0vtkkgqpg4,mouse,Nope,0,Which of these items did you see earlier?,test,NA,exemplar,TRUE,stimuli/organized/EXEMPLAR/USED/Efeather1.jpg,stimuli/organized/EXEMPLAR/USED/Efeather2.jpg,0,/Users/martincz/GitHub/COGS119/group_wi26_massive_memory/analysis/../data/raw_data/p0vtkkgqpg4_1772141591597.csv,21,female,yes,If the consistent visuals of an image or item impacts your memory of similar items.,Nope,FALSE
1315,html-button-response,196,110,388522,p0vtkkgqpg4,mouse,Nope,0,Which of these items did you see earlier?,test,NA,novel,TRUE,stimuli/organized/Novel pairs (tested)/n10awindmill.jpg,stimuli/organized/Novel pairs (tested)/n10bturkey.jpg,0,/Users/martincz/GitHub/COGS119/group_wi26_massive_memory/analysis/../data/raw_data/p0vtkkgqpg4_1772141591597.csv,21,female,yes,If the consistent visuals of an image or item impacts your memory of similar items.,Nope,FALSE
2095,html-button-response,197,111,390618,p0vtkkgqpg4,mouse,Nope,1,Which of these items did you see earlier?,test,NA,state,FALSE,stimuli/organized/STATE/USED/Sbreadbox2.JPG,stimuli/organized/STATE/USED/Sbreadbox1.JPG,0,/Users/martincz/GitHub/COGS119/group_wi26_massive_memory/analysis/../data/raw_data/p0vtkkgqpg4_1772141591597.csv,21,female,yes,If the consistent visuals of an image or item impacts your memory of similar items.,Nope,FALSE
1690,html-button-response,198,112,392309,p0vtkkgqpg4,mouse,Nope,1,Which of these items did you see earlier?,test,NA,state,TRUE,stimuli/organized/STATE/USED/Sbelt1.jpg,stimuli/organized/STATE/USED/Sbelt2.jpg,1,/Users/martincz/GitHub/COGS119/group_wi26_massive_memory/analysis/../data/raw_data/p0vtkkgqpg4_1772141591597.csv,21,female,yes,If the consistent visuals of an image or item impacts your memory of similar items.,Nope,FALSE
2082,html-button-response,199,113,394393,p0vtkkgqpg4,mouse,Nope,1,Which of these items did you see earlier?,test,NA,state,FALSE,stimuli/organized/STATE/USED/Sphone2.JPG,stimuli/organized/STATE/USED/Sphone1.JPG,0,/Users/martincz/GitHub/COGS119/group_wi26_massive_memory/analysis/../data/raw_data/p0vtkkgqpg4_1772141591597.csv,21,female,yes,If the consistent visuals of an image or item impacts your memory of similar items.,Nope,FALSE
1198,html-button-response,200,114,395592,p0vtkkgqpg4,mouse,Nope,1,Which of these items did you see earlier?,test,NA,novel,TRUE,stimuli/organized/Novel pairs (tested)/n09apenguin.jpg,stimuli/organized/Novel pairs (tested)/n09bsaddle.jpg,1,/Users/martincz/GitHub/COGS119/group_wi26_massive_memory/analysis/../data/raw_data/p0vtkkgqpg4_1772141591597.csv,21,female,yes,If the consistent visuals of an image or item impacts your memory of similar items.,Nope,FALSE
3520,html-button-response,201,115,399114,p0vtkkgqpg4,mouse,Nope,1,Which of these items did you see earlier?,test,NA,novel,TRUE,stimuli/organized/Novel pairs (tested)/n20acarseat.jpg,stimuli/organized/Novel pairs (tested)/n20bshelf.jpg,1,/Users/martincz/GitHub/COGS119/group_wi26_massive_memory/analysis/../data/raw_data/p0vtkkgqpg4_1772141591597.csv,21,female,yes,If the consistent visuals of an image or item impacts your memory of similar items.,Nope,FALSE
1119,html-button-response,202,116,400234,p0vtkkgqpg4,mouse,Nope,0,Which of these items did you see earlier?,test,NA,state,TRUE,stimuli/organized/STATE/USED/Sflask1.jpg,stimuli/organized/STATE/USED/Sflask2.jpg,0,/Users/martincz/GitHub/COGS119/group_wi26_massive_memory/analysis/../data/raw_data/p0vtkkgqpg4_1772141591597.csv,21,female,yes,If the consistent visuals of an image or item impacts your memory of similar items.,Nope,FALSE
