"success","rt","trial_type","trial_index","plugin_version","time_elapsed","random_id","participant","technical_issues","response","stimulus","timeout","failed_images","failed_audio","failed_video","trial_phase","is_repeat","test_type","correct","old_image","new_image","correct_position"
"true","1314","fullscreen","0","null","2317","p0vtkkgqpg4","mouse","Nope","","","","","","","","","","","","",""
"","1568","survey-text","1","2.0.0","3891","p0vtkkgqpg4","mouse","Nope","{""participant_id"":""mouse""}","","","","","","","","","","","",""
"","4715","html-keyboard-response","2","2.0.0","8608","p0vtkkgqpg4","mouse","Nope","Enter","
      <p>In this experiment, a series of objects will be displayed.</p>
      <p>Try to memorize as much as possible about the objects.</p>
      <p>If the image is a <strong> repeat</strong>, press the SPACEBAR.</p>
      <p>Press any key to begin.</p>
    ","","","","","","","","","","",""
"true","","preload","3","2.0.0","9558","p0vtkkgqpg4","mouse","Nope","","","false","[]","[]","[]","","","","","","",""
"","null","html-keyboard-response","4","2.0.0","10560","p0vtkkgqpg4","mouse","Nope","null","<div style=""font-size:60px;"">+</div>","","","","","","","","","","",""
"","null","image-keyboard-response","5","2.0.0","13564","p0vtkkgqpg4","mouse","Nope","null","stimuli/organized/STATE/USED/Sapplesgreenbasket2.jpg","","","","","memory","false","state","true","","",""
"","null","html-keyboard-response","6","2.0.0","14567","p0vtkkgqpg4","mouse","Nope","null","<div style=""font-size:60px; color:black;"">+</div>","","","","","","","","","","",""
"","null","image-keyboard-response","7","2.0.0","17570","p0vtkkgqpg4","mouse","Nope","null","stimuli/organized/STATE/USED/Sgiftbox2.jpg","","","","","memory","false","state","true","","",""
"","null","html-keyboard-response","8","2.0.0","18572","p0vtkkgqpg4","mouse","Nope","null","<div style=""font-size:60px; color:black;"">+</div>","","","","","","","","","","",""
"","null","image-keyboard-response","9","2.0.0","21575","p0vtkkgqpg4","mouse","Nope","null","stimuli/organized/EXEMPLAR/USED/Ebasket1.jpg","","","","","memory","false","exemplar","true","","",""
"","null","html-keyboard-response","10","2.0.0","22578","p0vtkkgqpg4","mouse","Nope","null","<div style=""font-size:60px; color:black;"">+</div>","","","","","","","","","","",""
"","null","image-keyboard-response","11","2.0.0","25581","p0vtkkgqpg4","mouse","Nope","null","stimuli/organized/EXEMPLAR/USED/Ebicycle1.jpg","","","","","memory","false","exemplar","true","","",""
"","null","html-keyboard-response","12","2.0.0","26583","p0vtkkgqpg4","mouse","Nope","null","<div style=""font-size:60px; color:black;"">+</div>","","","","","","","","","","",""
"","null","image-keyboard-response","13","2.0.0","29587","p0vtkkgqpg4","mouse","Nope","null","stimuli/organized/EXEMPLAR/USED/Ecamera2.jpg","","","","","memory","false","exemplar","true","","",""
"","null","html-keyboard-response","14","2.0.0","30589","p0vtkkgqpg4","mouse","Nope","null","<div style=""font-size:60px; color:black;"">+</div>","","","","","","","","","","",""
"","null","image-keyboard-response","15","2.0.0","33593","p0vtkkgqpg4","mouse","Nope","null","stimuli/organized/STATE/USED/Sbottles2.JPG","","","","","memory","false","state","true","","",""
"","null","html-keyboard-response","16","2.0.0","34596","p0vtkkgqpg4","mouse","Nope","null","<div style=""font-size:60px; color:black;"">+</div>","","","","","","","","","","",""
"","null","image-keyboard-response","17","2.0.0","37599","p0vtkkgqpg4","mouse","Nope","null","stimuli/organized/Novel pairs (tested)/n15bfootball.jpg","","","","","memory","false","novel","true","","",""
"","null","html-keyboard-response","18","2.0.0","38602","p0vtkkgqpg4","mouse","Nope","null","<div style=""font-size:60px; color:black;"">+</div>","","","","","","","","","","",""
"","null","image-keyboard-response","19","2.0.0","41606","p0vtkkgqpg4","mouse","Nope","null","stimuli/organized/Novel pairs (tested)/n07bswimmingpool.jpg","","","","","memory","false","novel","true","","",""
"","null","html-keyboard-response","20","2.0.0","42608","p0vtkkgqpg4","mouse","Nope","null","<div style=""font-size:60px; color:black;"">+</div>","","","","","","","","","","",""
"","null","image-keyboard-response","21","2.0.0","45611","p0vtkkgqpg4","mouse","Nope","null","stimuli/organized/STATE/USED/Sbriefcase1.jpg","","","","","memory","false","state","true","","",""
"","null","html-keyboard-response","22","2.0.0","46613","p0vtkkgqpg4","mouse","Nope","null","<div style=""font-size:60px; color:black;"">+</div>","","","","","","","","","","",""
"","null","image-keyboard-response","23","2.0.0","49616","p0vtkkgqpg4","mouse","Nope","null","stimuli/organized/EXEMPLAR/USED/Edispenser1.jpg","","","","","memory","false","exemplar","true","","",""
"","null","html-keyboard-response","24","2.0.0","50619","p0vtkkgqpg4","mouse","Nope","null","<div style=""font-size:60px; color:black;"">+</div>","","","","","","","","","","",""
"","null","image-keyboard-response","25","2.0.0","53621","p0vtkkgqpg4","mouse","Nope","null","stimuli/organized/STATE/USED/Sbrushes2.jpg","","","","","memory","false","state","true","","",""
"","null","html-keyboard-response","26","2.0.0","54624","p0vtkkgqpg4","mouse","Nope","null","<div style=""font-size:60px; color:black;"">+</div>","","","","","","","","","","",""
"","null","image-keyboard-response","27","2.0.0","57627","p0vtkkgqpg4","mouse","Nope","null","stimuli/organized/STATE/USED/Sjuiceglass2.JPG","","","","","memory","false","state","true","","",""
"","null","html-keyboard-response","28","2.0.0","58629","p0vtkkgqpg4","mouse","Nope","null","<div style=""font-size:60px; color:black;"">+</div>","","","","","","","","","","",""
"","null","image-keyboard-response","29","2.0.0","61632","p0vtkkgqpg4","mouse","Nope","null","stimuli/organized/STATE/USED/Sfiretrucktoy2.jpg","","","","","memory","false","state","true","","",""
"","null","html-keyboard-response","30","2.0.0","62634","p0vtkkgqpg4","mouse","Nope","null","<div style=""font-size:60px; color:black;"">+</div>","","","","","","","","","","",""
"","null","image-keyboard-response","31","2.0.0","65636","p0vtkkgqpg4","mouse","Nope","null","stimuli/organized/STATE/USED/Seggs1.jpg","","","","","memory","false","state","true","","",""
"","null","html-keyboard-response","32","2.0.0","66639","p0vtkkgqpg4","mouse","Nope","null","<div style=""font-size:60px; color:black;"">+</div>","","","","","","","","","","",""
"","null","image-keyboard-response","33","2.0.0","69642","p0vtkkgqpg4","mouse","Nope","null","stimuli/organized/STATE/USED/Sdonut2.jpg","","","","","memory","false","state","true","","",""
"","null","html-keyboard-response","34","2.0.0","70645","p0vtkkgqpg4","mouse","Nope","null","<div style=""font-size:60px; color:black;"">+</div>","","","","","","","","","","",""
"","null","image-keyboard-response","35","2.0.0","73648","p0vtkkgqpg4","mouse","Nope","null","stimuli/organized/STATE/USED/Sbelt1.jpg","","","","","memory","false","state","true","","",""
"","null","html-keyboard-response","36","2.0.0","74651","p0vtkkgqpg4","mouse","Nope","null","<div style=""font-size:60px; color:black;"">+</div>","","","","","","","","","","",""
"","null","image-keyboard-response","37","2.0.0","77652","p0vtkkgqpg4","mouse","Nope","null","stimuli/organized/Novel pairs (tested)/n04ayarn.jpg","","","","","memory","false","novel","true","","",""
"","null","html-keyboard-response","38","2.0.0","78655","p0vtkkgqpg4","mouse","Nope","null","<div style=""font-size:60px; color:black;"">+</div>","","","","","","","","","","",""
"","null","image-keyboard-response","39","2.0.0","81659","p0vtkkgqpg4","mouse","Nope","null","stimuli/organized/STATE/USED/Sdresser1.jpg","","","","","memory","false","state","true","","",""
"","null","html-keyboard-response","40","2.0.0","82662","p0vtkkgqpg4","mouse","Nope","null","<div style=""font-size:60px; color:black;"">+</div>","","","","","","","","","","",""
"","null","image-keyboard-response","41","2.0.0","85664","p0vtkkgqpg4","mouse","Nope","null","stimuli/organized/STATE/USED/Sgrinder2.jpg","","","","","memory","false","state","true","","",""
"","null","html-keyboard-response","42","2.0.0","86666","p0vtkkgqpg4","mouse","Nope","null","<div style=""font-size:60px; color:black;"">+</div>","","","","","","","","","","",""
"","null","image-keyboard-response","43","2.0.0","89670","p0vtkkgqpg4","mouse","Nope","null","stimuli/organized/STATE/USED/Spotpan2.JPG","","","","","memory","false","state","true","","",""
"","null","html-keyboard-response","44","2.0.0","90672","p0vtkkgqpg4","mouse","Nope","null","<div style=""font-size:60px; color:black;"">+</div>","","","","","","","","","","",""
"","null","image-keyboard-response","45","2.0.0","93676","p0vtkkgqpg4","mouse","Nope","null","stimuli/organized/STATE/USED/Sdishes1.JPG","","","","","memory","false","state","true","","",""
"","null","html-keyboard-response","46","2.0.0","94679","p0vtkkgqpg4","mouse","Nope","null","<div style=""font-size:60px; color:black;"">+</div>","","","","","","","","","","",""
"","null","image-keyboard-response","47","2.0.0","97681","p0vtkkgqpg4","mouse","Nope","null","stimuli/organized/EXEMPLAR/USED/Ebell1.jpg","","","","","memory","false","exemplar","true","","",""
"","null","html-keyboard-response","48","2.0.0","98684","p0vtkkgqpg4","mouse","Nope","null","<div style=""font-size:60px; color:black;"">+</div>","","","","","","","","","","",""
"","null","image-keyboard-response","49","2.0.0","101687","p0vtkkgqpg4","mouse","Nope","null","stimuli/organized/Novel pairs (tested)/n20acarseat.jpg","","","","","memory","false","novel","true","","",""
"","null","html-keyboard-response","50","2.0.0","102690","p0vtkkgqpg4","mouse","Nope","null","<div style=""font-size:60px; color:black;"">+</div>","","","","","","","","","","",""
"","null","image-keyboard-response","51","2.0.0","105693","p0vtkkgqpg4","mouse","Nope","null","stimuli/organized/Novel pairs (tested)/n16bhammer.jpg","","","","","memory","false","novel","true","","",""
"","null","html-keyboard-response","52","2.0.0","106696","p0vtkkgqpg4","mouse","Nope","null","<div style=""font-size:60px; color:black;"">+</div>","","","","","","","","","","",""
"","null","image-keyboard-response","53","2.0.0","109699","p0vtkkgqpg4","mouse","Nope","null","stimuli/organized/EXEMPLAR/USED/Egrapes2.jpg","","","","","memory","false","exemplar","true","","",""
"","null","html-keyboard-response","54","2.0.0","110702","p0vtkkgqpg4","mouse","Nope","null","<div style=""font-size:60px; color:black;"">+</div>","","","","","","","","","","",""
"","null","image-keyboard-response","55","2.0.0","113705","p0vtkkgqpg4","mouse","Nope","null","stimuli/organized/Novel pairs (tested)/n08bpaperclip.jpg","","","","","memory","false","novel","true","","",""
"","null","html-keyboard-response","56","2.0.0","114708","p0vtkkgqpg4","mouse","Nope","null","<div style=""font-size:60px; color:black;"">+</div>","","","","","","","","","","",""
"","null","image-keyboard-response","57","2.0.0","117711","p0vtkkgqpg4","mouse","Nope","null","stimuli/organized/STATE/USED/Sdryer2.jpg","","","","","memory","false","state","true","","",""
"","null","html-keyboard-response","58","2.0.0","118713","p0vtkkgqpg4","mouse","Nope","null","<div style=""font-size:60px; color:black;"">+</div>","","","","","","","","","","",""
"","null","image-keyboard-response","59","2.0.0","121715","p0vtkkgqpg4","mouse","Nope","null","stimuli/organized/STATE/USED/Sbox1.jpg","","","","","memory","false","state","true","","",""
"","null","html-keyboard-response","60","2.0.0","122718","p0vtkkgqpg4","mouse","Nope","null","<div style=""font-size:60px; color:black;"">+</div>","","","","","","","","","","",""
"","null","image-keyboard-response","61","2.0.0","125721","p0vtkkgqpg4","mouse","Nope","null","stimuli/organized/STATE/USED/Sbreadbox2.JPG","","","","","memory","false","state","true","","",""
"","null","html-keyboard-response","62","2.0.0","126724","p0vtkkgqpg4","mouse","Nope","null","<div style=""font-size:60px; color:black;"">+</div>","","","","","","","","","","",""
"","null","image-keyboard-response","63","2.0.0","129727","p0vtkkgqpg4","mouse","Nope","null","stimuli/organized/STATE/USED/Sabacus2.jpg","","","","","memory","false","state","true","","",""
"","null","html-keyboard-response","64","2.0.0","130729","p0vtkkgqpg4","mouse","Nope","null","<div style=""font-size:60px; color:black;"">+</div>","","","","","","","","","","",""
"","null","image-keyboard-response","65","2.0.0","133732","p0vtkkgqpg4","mouse","Nope","null","stimuli/organized/STATE/USED/Sbooks2.JPG","","","","","memory","false","state","true","","",""
"","null","html-keyboard-response","66","2.0.0","134735","p0vtkkgqpg4","mouse","Nope","null","<div style=""font-size:60px; color:black;"">+</div>","","","","","","","","","","",""
"","null","image-keyboard-response","67","2.0.0","137739","p0vtkkgqpg4","mouse","Nope","null","stimuli/organized/Novel pairs (tested)/n08bpaperclip.jpg","","","","","memory","true","novel","false","","",""
"","null","html-keyboard-response","68","2.0.0","138741","p0vtkkgqpg4","mouse","Nope","null","<div style=""font-size:60px; color:black;"">+</div>","","","","","","","","","","",""
"","null","image-keyboard-response","69","2.0.0","141744","p0vtkkgqpg4","mouse","Nope","null","stimuli/organized/STATE/USED/Sphone2.JPG","","","","","memory","false","state","true","","",""
"","null","html-keyboard-response","70","2.0.0","142746","p0vtkkgqpg4","mouse","Nope","null","<div style=""font-size:60px; color:black;"">+</div>","","","","","","","","","","",""
"","null","image-keyboard-response","71","2.0.0","145749","p0vtkkgqpg4","mouse","Nope","null","stimuli/organized/STATE/USED/Sgiftbag2.jpg","","","","","memory","false","state","true","","",""
"","null","html-keyboard-response","72","2.0.0","146752","p0vtkkgqpg4","mouse","Nope","null","<div style=""font-size:60px; color:black;"">+</div>","","","","","","","","","","",""
"","null","image-keyboard-response","73","2.0.0","149755","p0vtkkgqpg4","mouse","Nope","null","stimuli/organized/EXEMPLAR/USED/Ecalculator2.jpg","","","","","memory","false","exemplar","true","","",""
"","null","html-keyboard-response","74","2.0.0","150757","p0vtkkgqpg4","mouse","Nope","null","<div style=""font-size:60px; color:black;"">+</div>","","","","","","","","","","",""
"","null","image-keyboard-response","75","2.0.0","153760","p0vtkkgqpg4","mouse","Nope","null","stimuli/organized/STATE/USED/Shairbrush1.jpg","","","","","memory","false","state","true","","",""
"","null","html-keyboard-response","76","2.0.0","154763","p0vtkkgqpg4","mouse","Nope","null","<div style=""font-size:60px; color:black;"">+</div>","","","","","","","","","","",""
"","null","image-keyboard-response","77","2.0.0","157766","p0vtkkgqpg4","mouse","Nope","null","stimuli/organized/EXEMPLAR/USED/Efan2.jpg","","","","","memory","false","exemplar","true","","",""
"","null","html-keyboard-response","78","2.0.0","158769","p0vtkkgqpg4","mouse","Nope","null","<div style=""font-size:60px; color:black;"">+</div>","","","","","","","","","","",""
"","null","image-keyboard-response","79","2.0.0","161771","p0vtkkgqpg4","mouse","Nope","null","stimuli/organized/STATE/USED/Slaptop1.JPG","","","","","memory","false","state","true","","",""
"","null","html-keyboard-response","80","2.0.0","162774","p0vtkkgqpg4","mouse","Nope","null","<div style=""font-size:60px; color:black;"">+</div>","","","","","","","","","","",""
"","null","image-keyboard-response","81","2.0.0","165777","p0vtkkgqpg4","mouse","Nope","null","stimuli/organized/EXEMPLAR/USED/Eframe1.jpg","","","","","memory","false","exemplar","true","","",""
"","null","html-keyboard-response","82","2.0.0","166779","p0vtkkgqpg4","mouse","Nope","null","<div style=""font-size:60px; color:black;"">+</div>","","","","","","","","","","",""
"","null","image-keyboard-response","83","2.0.0","169782","p0vtkkgqpg4","mouse","Nope","null","stimuli/organized/EXEMPLAR/USED/Ecar2.jpg","","","","","memory","false","exemplar","true","","",""
"","null","html-keyboard-response","84","2.0.0","170785","p0vtkkgqpg4","mouse","Nope","null","<div style=""font-size:60px; color:black;"">+</div>","","","","","","","","","","",""
"","null","image-keyboard-response","85","2.0.0","173787","p0vtkkgqpg4","mouse","Nope","null","stimuli/organized/EXEMPLAR/USED/Ecabinet2.jpg","","","","","memory","false","exemplar","true","","",""
"","null","html-keyboard-response","86","2.0.0","174790","p0vtkkgqpg4","mouse","Nope","null","<div style=""font-size:60px; color:black;"">+</div>","","","","","","","","","","",""
"","null","image-keyboard-response","87","2.0.0","177793","p0vtkkgqpg4","mouse","Nope","null","stimuli/organized/Novel pairs (tested)/n12atelescope.jpg","","","","","memory","false","novel","true","","",""
"","null","html-keyboard-response","88","2.0.0","178795","p0vtkkgqpg4","mouse","Nope","null","<div style=""font-size:60px; color:black;"">+</div>","","","","","","","","","","",""
"","null","image-keyboard-response","89","2.0.0","181798","p0vtkkgqpg4","mouse","Nope","null","stimuli/organized/EXEMPLAR/USED/Echocolatebar2.jpg","","","","","memory","false","exemplar","true","","",""
"","null","html-keyboard-response","90","2.0.0","182801","p0vtkkgqpg4","mouse","Nope","null","<div style=""font-size:60px; color:black;"">+</div>","","","","","","","","","","",""
"","null","image-keyboard-response","91","2.0.0","185804","p0vtkkgqpg4","mouse","Nope","null","stimuli/organized/STATE/USED/Sdie1.jpg","","","","","memory","false","state","true","","",""
"","null","html-keyboard-response","92","2.0.0","186807","p0vtkkgqpg4","mouse","Nope","null","<div style=""font-size:60px; color:black;"">+</div>","","","","","","","","","","",""
"","null","image-keyboard-response","93","2.0.0","189810","p0vtkkgqpg4","mouse","Nope","null","stimuli/organized/EXEMPLAR/USED/Ebracelet2.jpg","","","","","memory","false","exemplar","true","","",""
"","null","html-keyboard-response","94","2.0.0","190813","p0vtkkgqpg4","mouse","Nope","null","<div style=""font-size:60px; color:black;"">+</div>","","","","","","","","","","",""
"","null","image-keyboard-response","95","2.0.0","193816","p0vtkkgqpg4","mouse","Nope","null","stimuli/organized/Novel pairs (tested)/n11abatteries.jpg","","","","","memory","false","novel","true","","",""
"","null","html-keyboard-response","96","2.0.0","194819","p0vtkkgqpg4","mouse","Nope","null","<div style=""font-size:60px; color:black;"">+</div>","","","","","","","","","","",""
"","null","image-keyboard-response","97","2.0.0","197822","p0vtkkgqpg4","mouse","Nope","null","stimuli/organized/Novel pairs (tested)/n06acane.jpg","","","","","memory","false","novel","true","","",""
"","null","html-keyboard-response","98","2.0.0","198824","p0vtkkgqpg4","mouse","Nope","null","<div style=""font-size:60px; color:black;"">+</div>","","","","","","","","","","",""
"","null","image-keyboard-response","99","2.0.0","201827","p0vtkkgqpg4","mouse","Nope","null","stimuli/organized/Novel pairs (tested)/n18bsnail.jpg","","","","","memory","false","novel","true","","",""
"","null","html-keyboard-response","100","2.0.0","202829","p0vtkkgqpg4","mouse","Nope","null","<div style=""font-size:60px; color:black;"">+</div>","","","","","","","","","","",""
"","null","image-keyboard-response","101","2.0.0","205832","p0vtkkgqpg4","mouse","Nope","null","stimuli/organized/EXEMPLAR/USED/Egame2.jpg","","","","","memory","false","exemplar","true","","",""
"","null","html-keyboard-response","102","2.0.0","206834","p0vtkkgqpg4","mouse","Nope","null","<div style=""font-size:60px; color:black;"">+</div>","","","","","","","","","","",""
"","null","image-keyboard-response","103","2.0.0","209838","p0vtkkgqpg4","mouse","Nope","null","stimuli/organized/EXEMPLAR/USED/Eglobe1.jpg","","","","","memory","false","exemplar","true","","",""
"","null","html-keyboard-response","104","2.0.0","210840","p0vtkkgqpg4","mouse","Nope","null","<div style=""font-size:60px; color:black;"">+</div>","","","","","","","","","","",""
"","1959","image-keyboard-response","105","2.0.0","213843","p0vtkkgqpg4","mouse","Nope"," ","stimuli/organized/STATE/USED/Sgrinder2.jpg","","","","","memory","true","state","true","","",""
"","null","html-keyboard-response","106","2.0.0","214845","p0vtkkgqpg4","mouse","Nope","null","<div style=""font-size:60px; color:green;"">+</div>","","","","","","","","","","",""
"","null","image-keyboard-response","107","2.0.0","217849","p0vtkkgqpg4","mouse","Nope","null","stimuli/organized/STATE/USED/Scontainer2.JPG","","","","","memory","false","state","true","","",""
"","null","html-keyboard-response","108","2.0.0","218851","p0vtkkgqpg4","mouse","Nope","null","<div style=""font-size:60px; color:black;"">+</div>","","","","","","","","","","",""
"","null","image-keyboard-response","109","2.0.0","221854","p0vtkkgqpg4","mouse","Nope","null","stimuli/organized/STATE/USED/Sscissors1.JPG","","","","","memory","false","state","true","","",""
"","null","html-keyboard-response","110","2.0.0","222855","p0vtkkgqpg4","mouse","Nope","null","<div style=""font-size:60px; color:black;"">+</div>","","","","","","","","","","",""
"","null","image-keyboard-response","111","2.0.0","225857","p0vtkkgqpg4","mouse","Nope","null","stimuli/organized/STATE/USED/Sflask1.jpg","","","","","memory","false","state","true","","",""
"","null","html-keyboard-response","112","2.0.0","226859","p0vtkkgqpg4","mouse","Nope","null","<div style=""font-size:60px; color:black;"">+</div>","","","","","","","","","","",""
"","null","image-keyboard-response","113","2.0.0","229863","p0vtkkgqpg4","mouse","Nope","null","stimuli/organized/Novel pairs (tested)/n10awindmill.jpg","","","","","memory","false","novel","true","","",""
"","null","html-keyboard-response","114","2.0.0","230865","p0vtkkgqpg4","mouse","Nope","null","<div style=""font-size:60px; color:black;"">+</div>","","","","","","","","","","",""
"","null","image-keyboard-response","115","2.0.0","233869","p0vtkkgqpg4","mouse","Nope","null","stimuli/organized/EXEMPLAR/USED/Econe2.jpg","","","","","memory","false","exemplar","true","","",""
"","null","html-keyboard-response","116","2.0.0","234871","p0vtkkgqpg4","mouse","Nope","null","<div style=""font-size:60px; color:black;"">+</div>","","","","","","","","","","",""
"","null","image-keyboard-response","117","2.0.0","237875","p0vtkkgqpg4","mouse","Nope","null","stimuli/organized/Novel pairs (tested)/n02aaxe.jpg","","","","","memory","false","novel","true","","",""
"","null","html-keyboard-response","118","2.0.0","238877","p0vtkkgqpg4","mouse","Nope","null","<div style=""font-size:60px; color:black;"">+</div>","","","","","","","","","","",""
"","null","image-keyboard-response","119","2.0.0","241881","p0vtkkgqpg4","mouse","Nope","null","stimuli/organized/Novel pairs (tested)/n13bdustpan.jpg","","","","","memory","false","novel","true","","",""
"","null","html-keyboard-response","120","2.0.0","242883","p0vtkkgqpg4","mouse","Nope","null","<div style=""font-size:60px; color:black;"">+</div>","","","","","","","","","","",""
"","null","image-keyboard-response","121","2.0.0","245886","p0vtkkgqpg4","mouse","Nope","null","stimuli/organized/STATE/USED/Scrayons1.jpg","","","","","memory","false","state","true","","",""
"","null","html-keyboard-response","122","2.0.0","246888","p0vtkkgqpg4","mouse","Nope","null","<div style=""font-size:60px; color:black;"">+</div>","","","","","","","","","","",""
"","null","image-keyboard-response","123","2.0.0","249891","p0vtkkgqpg4","mouse","Nope","null","stimuli/organized/Novel pairs (tested)/n19apickle.jpg","","","","","memory","false","novel","true","","",""
"","null","html-keyboard-response","124","2.0.0","250894","p0vtkkgqpg4","mouse","Nope","null","<div style=""font-size:60px; color:black;"">+</div>","","","","","","","","","","",""
"","null","image-keyboard-response","125","2.0.0","253896","p0vtkkgqpg4","mouse","Nope","null","stimuli/organized/STATE/USED/Schinesefoodbox1.jpg","","","","","memory","false","state","true","","",""
"","null","html-keyboard-response","126","2.0.0","254899","p0vtkkgqpg4","mouse","Nope","null","<div style=""font-size:60px; color:black;"">+</div>","","","","","","","","","","",""
"","null","image-keyboard-response","127","2.0.0","257902","p0vtkkgqpg4","mouse","Nope","null","stimuli/organized/STATE/USED/Sscanner2.JPG","","","","","memory","false","state","true","","",""
"","null","html-keyboard-response","128","2.0.0","258904","p0vtkkgqpg4","mouse","Nope","null","<div style=""font-size:60px; color:black;"">+</div>","","","","","","","","","","",""
"","null","image-keyboard-response","129","2.0.0","261907","p0vtkkgqpg4","mouse","Nope","null","stimuli/organized/STATE/USED/Scoffeemaker1.JPG","","","","","memory","false","state","true","","",""
"","null","html-keyboard-response","130","2.0.0","262909","p0vtkkgqpg4","mouse","Nope","null","<div style=""font-size:60px; color:black;"">+</div>","","","","","","","","","","",""
"","null","image-keyboard-response","131","2.0.0","265912","p0vtkkgqpg4","mouse","Nope","null","stimuli/organized/STATE/USED/Sdrum1.jpg","","","","","memory","false","state","true","","",""
"","null","html-keyboard-response","132","2.0.0","266914","p0vtkkgqpg4","mouse","Nope","null","<div style=""font-size:60px; color:black;"">+</div>","","","","","","","","","","",""
"","null","image-keyboard-response","133","2.0.0","269917","p0vtkkgqpg4","mouse","Nope","null","stimuli/organized/EXEMPLAR/USED/Efeather1.jpg","","","","","memory","false","exemplar","true","","",""
"","null","html-keyboard-response","134","2.0.0","270920","p0vtkkgqpg4","mouse","Nope","null","<div style=""font-size:60px; color:black;"">+</div>","","","","","","","","","","",""
"","1253","image-keyboard-response","135","2.0.0","273923","p0vtkkgqpg4","mouse","Nope"," ","stimuli/organized/EXEMPLAR/USED/Eglobe1.jpg","","","","","memory","true","exemplar","true","","",""
"","null","html-keyboard-response","136","2.0.0","274925","p0vtkkgqpg4","mouse","Nope","null","<div style=""font-size:60px; color:green;"">+</div>","","","","","","","","","","",""
"","null","image-keyboard-response","137","2.0.0","277928","p0vtkkgqpg4","mouse","Nope","null","stimuli/organized/Novel pairs (tested)/n09apenguin.jpg","","","","","memory","false","novel","true","","",""
"","null","html-keyboard-response","138","2.0.0","278931","p0vtkkgqpg4","mouse","Nope","null","<div style=""font-size:60px; color:black;"">+</div>","","","","","","","","","","",""
"","null","image-keyboard-response","139","2.0.0","281934","p0vtkkgqpg4","mouse","Nope","null","stimuli/organized/Novel pairs (tested)/n03acamel.jpg","","","","","memory","false","novel","true","","",""
"","null","html-keyboard-response","140","2.0.0","282937","p0vtkkgqpg4","mouse","Nope","null","<div style=""font-size:60px; color:black;"">+</div>","","","","","","","","","","",""
"","null","image-keyboard-response","141","2.0.0","285940","p0vtkkgqpg4","mouse","Nope","null","stimuli/organized/Novel pairs (tested)/n01aladybug.jpg","","","","","memory","false","novel","true","","",""
"","null","html-keyboard-response","142","2.0.0","286941","p0vtkkgqpg4","mouse","Nope","null","<div style=""font-size:60px; color:black;"">+</div>","","","","","","","","","","",""
"","1171","image-keyboard-response","143","2.0.0","289945","p0vtkkgqpg4","mouse","Nope"," ","stimuli/organized/Novel pairs (tested)/n15bfootball.jpg","","","","","memory","true","novel","true","","",""
"","null","html-keyboard-response","144","2.0.0","290948","p0vtkkgqpg4","mouse","Nope","null","<div style=""font-size:60px; color:green;"">+</div>","","","","","","","","","","",""
"","null","image-keyboard-response","145","2.0.0","293950","p0vtkkgqpg4","mouse","Nope","null","stimuli/organized/EXEMPLAR/USED/Echisel2.jpg","","","","","memory","false","exemplar","true","","",""
"","null","html-keyboard-response","146","2.0.0","294952","p0vtkkgqpg4","mouse","Nope","null","<div style=""font-size:60px; color:black;"">+</div>","","","","","","","","","","",""
"","null","image-keyboard-response","147","2.0.0","297956","p0vtkkgqpg4","mouse","Nope","null","stimuli/organized/STATE/USED/Spie2.JPG","","","","","memory","false","state","true","","",""
"","null","html-keyboard-response","148","2.0.0","298958","p0vtkkgqpg4","mouse","Nope","null","<div style=""font-size:60px; color:black;"">+</div>","","","","","","","","","","",""
"","null","image-keyboard-response","149","2.0.0","301962","p0vtkkgqpg4","mouse","Nope","null","stimuli/organized/EXEMPLAR/USED/Ebread1.jpg","","","","","memory","false","exemplar","true","","",""
"","null","html-keyboard-response","150","2.0.0","302964","p0vtkkgqpg4","mouse","Nope","null","<div style=""font-size:60px; color:black;"">+</div>","","","","","","","","","","",""
"","null","image-keyboard-response","151","2.0.0","305966","p0vtkkgqpg4","mouse","Nope","null","stimuli/organized/EXEMPLAR/USED/Egoggles1.jpg","","","","","memory","false","exemplar","true","","",""
"","null","html-keyboard-response","152","2.0.0","306969","p0vtkkgqpg4","mouse","Nope","null","<div style=""font-size:60px; color:black;"">+</div>","","","","","","","","","","",""
"","null","image-keyboard-response","153","2.0.0","309972","p0vtkkgqpg4","mouse","Nope","null","stimuli/organized/Novel pairs (tested)/n05abarrel.jpg","","","","","memory","false","novel","true","","",""
"","null","html-keyboard-response","154","2.0.0","310975","p0vtkkgqpg4","mouse","Nope","null","<div style=""font-size:60px; color:black;"">+</div>","","","","","","","","","","",""
"","null","image-keyboard-response","155","2.0.0","313977","p0vtkkgqpg4","mouse","Nope","null","stimuli/organized/STATE/USED/Sbabytoy1.JPG","","","","","memory","false","state","true","","",""
"","null","html-keyboard-response","156","2.0.0","314979","p0vtkkgqpg4","mouse","Nope","null","<div style=""font-size:60px; color:black;"">+</div>","","","","","","","","","","",""
"","null","image-keyboard-response","157","2.0.0","317982","p0vtkkgqpg4","mouse","Nope","null","stimuli/organized/STATE/USED/Sbureau2.JPG","","","","","memory","false","state","true","","",""
"","null","html-keyboard-response","158","2.0.0","318984","p0vtkkgqpg4","mouse","Nope","null","<div style=""font-size:60px; color:black;"">+</div>","","","","","","","","","","",""
"","null","image-keyboard-response","159","2.0.0","321988","p0vtkkgqpg4","mouse","Nope","null","stimuli/organized/STATE/USED/Scookies2.JPG","","","","","memory","false","state","true","","",""
"","null","html-keyboard-response","160","2.0.0","322990","p0vtkkgqpg4","mouse","Nope","null","<div style=""font-size:60px; color:black;"">+</div>","","","","","","","","","","",""
"","null","image-keyboard-response","161","2.0.0","325992","p0vtkkgqpg4","mouse","Nope","null","stimuli/organized/Novel pairs (tested)/n14acigarette.jpg","","","","","memory","false","novel","true","","",""
"","null","html-keyboard-response","162","2.0.0","326994","p0vtkkgqpg4","mouse","Nope","null","<div style=""font-size:60px; color:black;"">+</div>","","","","","","","","","","",""
"","null","image-keyboard-response","163","2.0.0","329998","p0vtkkgqpg4","mouse","Nope","null","stimuli/organized/Novel pairs (tested)/n17bweddingdress.jpg","","","","","memory","false","novel","true","","",""
"","null","html-keyboard-response","164","2.0.0","331000","p0vtkkgqpg4","mouse","Nope","null","<div style=""font-size:60px; color:black;"">+</div>","","","","","","","","","","",""
"","1432","image-keyboard-response","165","2.0.0","334004","p0vtkkgqpg4","mouse","Nope"," ","stimuli/organized/STATE/USED/Sbabytoy1.JPG","","","","","memory","true","state","true","","",""
"","2663","html-button-response","166","2.0.0","336669","p0vtkkgqpg4","mouse","Nope","0","<p>You have completed the study phase.</p><p>Take a short break. Press the button below when you are ready to continue.</p>","","","","","","","","","","",""
"","4516","html-keyboard-response","167","2.0.0","341186","p0vtkkgqpg4","mouse","Nope"," ","<p>You will now be shown pairs of images.</p><p>Select the image you remember seeing during the study phase.</p><p>Focus on accuracy, not speed.</p><p>Press any key to begin.</p>","","","","","","","","","","",""
"","1451","html-button-response","168","2.0.0","342639","p0vtkkgqpg4","mouse","Nope","1","Which of these items did you see earlier?","","","","","test","","exemplar","true","stimuli/organized/EXEMPLAR/USED/Eglobe1.jpg","stimuli/organized/EXEMPLAR/USED/Eglobe2.jpg","1"
"","1723","html-button-response","169","2.0.0","344364","p0vtkkgqpg4","mouse","Nope","1","Which of these items did you see earlier?","","","","","test","","state","true","stimuli/organized/STATE/USED/Sdrum1.jpg","stimuli/organized/STATE/USED/Sdrum2.jpg","1"
"","1161","html-button-response","170","2.0.0","345526","p0vtkkgqpg4","mouse","Nope","0","Which of these items did you see earlier?","","","","","test","","state","true","stimuli/organized/STATE/USED/Sbox1.jpg","stimuli/organized/STATE/USED/Sbox2.jpg","0"
"","2194","html-button-response","171","2.0.0","347722","p0vtkkgqpg4","mouse","Nope","1","Which of these items did you see earlier?","","","","","test","","exemplar","true","stimuli/organized/EXEMPLAR/USED/Efan2.jpg","stimuli/organized/EXEMPLAR/USED/Efan1.jpg","1"
"","1086","html-button-response","172","2.0.0","348810","p0vtkkgqpg4","mouse","Nope","0","Which of these items did you see earlier?","","","","","test","","exemplar","true","stimuli/organized/EXEMPLAR/USED/Ebracelet2.jpg","stimuli/organized/EXEMPLAR/USED/Ebracelet1.jpg","0"
"","1469","html-button-response","173","2.0.0","350281","p0vtkkgqpg4","mouse","Nope","1","Which of these items did you see earlier?","","","","","test","","state","true","stimuli/organized/STATE/USED/Sjuiceglass2.JPG","stimuli/organized/STATE/USED/Sjuiceglass1.JPG","1"
"","1482","html-button-response","174","2.0.0","351764","p0vtkkgqpg4","mouse","Nope","0","Which of these items did you see earlier?","","","","","test","","novel","true","stimuli/organized/Novel pairs (tested)/n13bdustpan.jpg","stimuli/organized/Novel pairs (tested)/n13ablueberries.jpg","0"
"","1365","html-button-response","175","2.0.0","353130","p0vtkkgqpg4","mouse","Nope","0","Which of these items did you see earlier?","","","","","test","","state","true","stimuli/organized/STATE/USED/Sgrinder2.jpg","stimuli/organized/STATE/USED/Sgrinder1.jpg","0"
"","1450","html-button-response","176","2.0.0","354581","p0vtkkgqpg4","mouse","Nope","0","Which of these items did you see earlier?","","","","","test","","novel","true","stimuli/organized/Novel pairs (tested)/n12atelescope.jpg","stimuli/organized/Novel pairs (tested)/n12bwatch.jpg","0"
"","1244","html-button-response","177","2.0.0","355826","p0vtkkgqpg4","mouse","Nope","1","Which of these items did you see earlier?","","","","","test","","exemplar","true","stimuli/organized/EXEMPLAR/USED/Ebread1.jpg","stimuli/organized/EXEMPLAR/USED/Ebread2.jpg","1"
"","1791","html-button-response","178","2.0.0","357618","p0vtkkgqpg4","mouse","Nope","0","Which of these items did you see earlier?","","","","","test","","state","true","stimuli/organized/STATE/USED/Sbottles2.JPG","stimuli/organized/STATE/USED/Sbottles1.JPG","0"
"","2219","html-button-response","179","2.0.0","359838","p0vtkkgqpg4","mouse","Nope","0","Which of these items did you see earlier?","","","","","test","","state","true","stimuli/organized/STATE/USED/Scoffeemaker1.JPG","stimuli/organized/STATE/USED/Scoffeemaker2.JPG","0"
"","1528","html-button-response","180","2.0.0","361368","p0vtkkgqpg4","mouse","Nope","0","Which of these items did you see earlier?","","","","","test","","novel","true","stimuli/organized/Novel pairs (tested)/n07bswimmingpool.jpg","stimuli/organized/Novel pairs (tested)/n07apotato.jpg","0"
"","2198","html-button-response","181","2.0.0","363567","p0vtkkgqpg4","mouse","Nope","1","Which of these items did you see earlier?","","","","","test","","state","true","stimuli/organized/STATE/USED/Sgiftbag2.jpg","stimuli/organized/STATE/USED/Sgiftbag1.jpg","1"
"","1466","html-button-response","182","2.0.0","365035","p0vtkkgqpg4","mouse","Nope","1","Which of these items did you see earlier?","","","","","test","","state","true","stimuli/organized/STATE/USED/Sdie1.jpg","stimuli/organized/STATE/USED/Sdie2.jpg","1"
"","2281","html-button-response","183","2.0.0","367318","p0vtkkgqpg4","mouse","Nope","1","Which of these items did you see earlier?","","","","","test","","exemplar","false","stimuli/organized/EXEMPLAR/USED/Ecar2.jpg","stimuli/organized/EXEMPLAR/USED/Ecar1.jpg","0"
"","1481","html-button-response","184","2.0.0","368801","p0vtkkgqpg4","mouse","Nope","0","Which of these items did you see earlier?","","","","","test","","state","true","stimuli/organized/STATE/USED/Schinesefoodbox1.jpg","stimuli/organized/STATE/USED/Schinesefoodbox2.jpg","0"
"","1765","html-button-response","185","2.0.0","370567","p0vtkkgqpg4","mouse","Nope","0","Which of these items did you see earlier?","","","","","test","","state","false","stimuli/organized/STATE/USED/Sapplesgreenbasket2.jpg","stimuli/organized/STATE/USED/Sapplesgreenbasket1.jpg","1"
"","1532","html-button-response","186","2.0.0","372101","p0vtkkgqpg4","mouse","Nope","0","Which of these items did you see earlier?","","","","","test","","state","true","stimuli/organized/STATE/USED/Sdonut2.jpg","stimuli/organized/STATE/USED/Sdonut1.jpg","0"
"","1232","html-button-response","187","2.0.0","373334","p0vtkkgqpg4","mouse","Nope","1","Which of these items did you see earlier?","","","","","test","","novel","true","stimuli/organized/Novel pairs (tested)/n18bsnail.jpg","stimuli/organized/Novel pairs (tested)/n18apretzel.jpg","1"
"","1232","html-button-response","188","2.0.0","374568","p0vtkkgqpg4","mouse","Nope","1","Which of these items did you see earlier?","","","","","test","","novel","true","stimuli/organized/Novel pairs (tested)/n02aaxe.jpg","stimuli/organized/Novel pairs (tested)/n02bsafetypin.jpg","1"
"","1582","html-button-response","189","2.0.0","376151","p0vtkkgqpg4","mouse","Nope","0","Which of these items did you see earlier?","","","","","test","","novel","true","stimuli/organized/Novel pairs (tested)/n11abatteries.jpg","stimuli/organized/Novel pairs (tested)/n11bsock.jpg","0"
"","2998","html-button-response","190","2.0.0","379151","p0vtkkgqpg4","mouse","Nope","0","Which of these items did you see earlier?","","","","","test","","state","false","stimuli/organized/STATE/USED/Seggs1.jpg","stimuli/organized/STATE/USED/Seggs2.jpg","1"
"","1432","html-button-response","191","2.0.0","380584","p0vtkkgqpg4","mouse","Nope","0","Which of these items did you see earlier?","","","","","test","","novel","true","stimuli/organized/Novel pairs (tested)/n14acigarette.jpg","stimuli/organized/Novel pairs (tested)/n14bgolfball.jpg","0"
"","1349","html-button-response","192","2.0.0","381934","p0vtkkgqpg4","mouse","Nope","0","Which of these items did you see earlier?","","","","","test","","novel","true","stimuli/organized/Novel pairs (tested)/n17bweddingdress.jpg","stimuli/organized/Novel pairs (tested)/n17avendingmachine.jpg","0"
"","1516","html-button-response","193","2.0.0","383451","p0vtkkgqpg4","mouse","Nope","1","Which of these items did you see earlier?","","","","","test","","novel","true","stimuli/organized/Novel pairs (tested)/n05abarrel.jpg","stimuli/organized/Novel pairs (tested)/n05bcactus.jpg","1"
"","2419","html-button-response","194","2.0.0","385871","p0vtkkgqpg4","mouse","Nope","0","Which of these items did you see earlier?","","","","","test","","exemplar","true","stimuli/organized/EXEMPLAR/USED/Ebell1.jpg","stimuli/organized/EXEMPLAR/USED/Ebell2.jpg","0"
"","1333","html-button-response","195","2.0.0","387205","p0vtkkgqpg4","mouse","Nope","0","Which of these items did you see earlier?","","","","","test","","exemplar","true","stimuli/organized/EXEMPLAR/USED/Efeather1.jpg","stimuli/organized/EXEMPLAR/USED/Efeather2.jpg","0"
"","1315","html-button-response","196","2.0.0","388522","p0vtkkgqpg4","mouse","Nope","0","Which of these items did you see earlier?","","","","","test","","novel","true","stimuli/organized/Novel pairs (tested)/n10awindmill.jpg","stimuli/organized/Novel pairs (tested)/n10bturkey.jpg","0"
"","2095","html-button-response","197","2.0.0","390618","p0vtkkgqpg4","mouse","Nope","1","Which of these items did you see earlier?","","","","","test","","state","false","stimuli/organized/STATE/USED/Sbreadbox2.JPG","stimuli/organized/STATE/USED/Sbreadbox1.JPG","0"
"","1690","html-button-response","198","2.0.0","392309","p0vtkkgqpg4","mouse","Nope","1","Which of these items did you see earlier?","","","","","test","","state","true","stimuli/organized/STATE/USED/Sbelt1.jpg","stimuli/organized/STATE/USED/Sbelt2.jpg","1"
"","2082","html-button-response","199","2.0.0","394393","p0vtkkgqpg4","mouse","Nope","1","Which of these items did you see earlier?","","","","","test","","state","false","stimuli/organized/STATE/USED/Sphone2.JPG","stimuli/organized/STATE/USED/Sphone1.JPG","0"
"","1198","html-button-response","200","2.0.0","395592","p0vtkkgqpg4","mouse","Nope","1","Which of these items did you see earlier?","","","","","test","","novel","true","stimuli/organized/Novel pairs (tested)/n09apenguin.jpg","stimuli/organized/Novel pairs (tested)/n09bsaddle.jpg","1"
"","3520","html-button-response","201","2.0.0","399114","p0vtkkgqpg4","mouse","Nope","1","Which of these items did you see earlier?","","","","","test","","novel","true","stimuli/organized/Novel pairs (tested)/n20acarseat.jpg","stimuli/organized/Novel pairs (tested)/n20bshelf.jpg","1"
"","1119","html-button-response","202","2.0.0","400234","p0vtkkgqpg4","mouse","Nope","0","Which of these items did you see earlier?","","","","","test","","state","true","stimuli/organized/STATE/USED/Sflask1.jpg","stimuli/organized/STATE/USED/Sflask2.jpg","0"
"","3391","html-button-response","203","2.0.0","403626","p0vtkkgqpg4","mouse","Nope","0","Which of these items did you see earlier?","","","","","test","","state","true","stimuli/organized/STATE/USED/Sbrushes2.jpg","stimuli/organized/STATE/USED/Sbrushes1.jpg","0"
"","2140","html-button-response","204","2.0.0","405768","p0vtkkgqpg4","mouse","Nope","0","Which of these items did you see earlier?","","","","","test","","novel","false","stimuli/organized/Novel pairs (tested)/n06acane.jpg","stimuli/organized/Novel pairs (tested)/n06blipstick.jpg","1"
"","1156","html-button-response","205","2.0.0","406926","p0vtkkgqpg4","mouse","Nope","0","Which of these items did you see earlier?","","","","","test","","state","false","stimuli/organized/STATE/USED/Spie2.JPG","stimuli/organized/STATE/USED/Spie1.JPG","1"
"","1899","html-button-response","206","2.0.0","408826","p0vtkkgqpg4","mouse","Nope","0","Which of these items did you see earlier?","","","","","test","","novel","true","stimuli/organized/Novel pairs (tested)/n08bpaperclip.jpg","stimuli/organized/Novel pairs (tested)/n08aoven.jpg","0"
"","2790","html-button-response","207","2.0.0","411618","p0vtkkgqpg4","mouse","Nope","0","Which of these items did you see earlier?","","","","","test","","state","true","stimuli/organized/STATE/USED/Sabacus2.jpg","stimuli/organized/STATE/USED/Sabacus1.jpg","0"
"","940","html-button-response","208","2.0.0","412559","p0vtkkgqpg4","mouse","Nope","1","Which of these items did you see earlier?","","","","","test","","exemplar","false","stimuli/organized/EXEMPLAR/USED/Echocolatebar2.jpg","stimuli/organized/EXEMPLAR/USED/Echocolatebar1.jpg","0"
"","2715","html-button-response","209","2.0.0","415276","p0vtkkgqpg4","mouse","Nope","1","Which of these items did you see earlier?","","","","","test","","state","false","stimuli/organized/STATE/USED/Spotpan2.JPG","stimuli/organized/STATE/USED/Spotpan1.JPG","0"
"","1324","html-button-response","210","2.0.0","416601","p0vtkkgqpg4","mouse","Nope","0","Which of these items did you see earlier?","","","","","test","","exemplar","true","stimuli/organized/EXEMPLAR/USED/Ecalculator2.jpg","stimuli/organized/EXEMPLAR/USED/Ecalculator1.jpg","0"
"","2498","html-button-response","211","2.0.0","419101","p0vtkkgqpg4","mouse","Nope","0","Which of these items did you see earlier?","","","","","test","","state","true","stimuli/organized/STATE/USED/Scookies2.JPG","stimuli/organized/STATE/USED/Scookies1.JPG","0"
"","3223","html-button-response","212","2.0.0","422326","p0vtkkgqpg4","mouse","Nope","0","Which of these items did you see earlier?","","","","","test","","state","false","stimuli/organized/STATE/USED/Sdishes1.JPG","stimuli/organized/STATE/USED/Sdishes2.JPG","1"
"","1757","html-button-response","213","2.0.0","424085","p0vtkkgqpg4","mouse","Nope","0","Which of these items did you see earlier?","","","","","test","","state","true","stimuli/organized/STATE/USED/Sbriefcase1.jpg","stimuli/organized/STATE/USED/Sbriefcase2.jpg","0"
"","2694","html-button-response","214","2.0.0","426781","p0vtkkgqpg4","mouse","Nope","0","Which of these items did you see earlier?","","","","","test","","exemplar","true","stimuli/organized/EXEMPLAR/USED/Echisel2.jpg","stimuli/organized/EXEMPLAR/USED/Echisel1.jpg","0"
"","1148","html-button-response","215","2.0.0","427930","p0vtkkgqpg4","mouse","Nope","0","Which of these items did you see earlier?","","","","","test","","exemplar","true","stimuli/organized/EXEMPLAR/USED/Ebasket1.jpg","stimuli/organized/EXEMPLAR/USED/Ebasket2.jpg","0"
"","1494","html-button-response","216","2.0.0","429426","p0vtkkgqpg4","mouse","Nope","1","Which of these items did you see earlier?","","","","","test","","exemplar","true","stimuli/organized/EXEMPLAR/USED/Econe2.jpg","stimuli/organized/EXEMPLAR/USED/Econe1.jpg","1"
"","1048","html-button-response","217","2.0.0","430476","p0vtkkgqpg4","mouse","Nope","1","Which of these items did you see earlier?","","","","","test","","novel","true","stimuli/organized/Novel pairs (tested)/n19apickle.jpg","stimuli/organized/Novel pairs (tested)/n19bhairbrush.jpg","1"
"","1890","html-button-response","218","2.0.0","432368","p0vtkkgqpg4","mouse","Nope","1","Which of these items did you see earlier?","","","","","test","","novel","true","stimuli/organized/Novel pairs (tested)/n16bhammer.jpg","stimuli/organized/Novel pairs (tested)/n16abananas.jpg","1"
"","1249","html-button-response","219","2.0.0","433618","p0vtkkgqpg4","mouse","Nope","0","Which of these items did you see earlier?","","","","","test","","exemplar","true","stimuli/organized/EXEMPLAR/USED/Egame2.jpg","stimuli/organized/EXEMPLAR/USED/Egame1.jpg","0"
"","1940","html-button-response","220","2.0.0","435559","p0vtkkgqpg4","mouse","Nope","0","Which of these items did you see earlier?","","","","","test","","state","true","stimuli/organized/STATE/USED/Scontainer2.JPG","stimuli/organized/STATE/USED/Scontainer1.JPG","0"
"","1590","html-button-response","221","2.0.0","437151","p0vtkkgqpg4","mouse","Nope","0","Which of these items did you see earlier?","","","","","test","","exemplar","true","stimuli/organized/EXEMPLAR/USED/Egrapes2.jpg","stimuli/organized/EXEMPLAR/USED/Egrapes1.jpg","0"
"","1115","html-button-response","222","2.0.0","438267","p0vtkkgqpg4","mouse","Nope","0","Which of these items did you see earlier?","","","","","test","","exemplar","true","stimuli/organized/EXEMPLAR/USED/Ecabinet2.jpg","stimuli/organized/EXEMPLAR/USED/Ecabinet1.jpg","0"
"","2049","html-button-response","223","2.0.0","440318","p0vtkkgqpg4","mouse","Nope","1","Which of these items did you see earlier?","","","","","test","","state","false","stimuli/organized/STATE/USED/Sdryer2.jpg","stimuli/organized/STATE/USED/Sdryer1.jpg","0"
"","1073","html-button-response","224","2.0.0","441393","p0vtkkgqpg4","mouse","Nope","1","Which of these items did you see earlier?","","","","","test","","state","true","stimuli/organized/STATE/USED/Sscissors1.JPG","stimuli/organized/STATE/USED/Sscissors2.JPG","1"
"","1894","html-button-response","225","2.0.0","443288","p0vtkkgqpg4","mouse","Nope","0","Which of these items did you see earlier?","","","","","test","","novel","true","stimuli/organized/Novel pairs (tested)/n03acamel.jpg","stimuli/organized/Novel pairs (tested)/n03bbagel.jpg","0"
"","2773","html-button-response","226","2.0.0","446062","p0vtkkgqpg4","mouse","Nope","0","Which of these items did you see earlier?","","","","","test","","exemplar","true","stimuli/organized/EXEMPLAR/USED/Egoggles1.jpg","stimuli/organized/EXEMPLAR/USED/Egoggles2.jpg","0"
"","1370","html-button-response","227","2.0.0","447433","p0vtkkgqpg4","mouse","Nope","0","Which of these items did you see earlier?","","","","","test","","state","false","stimuli/organized/STATE/USED/Scrayons1.jpg","stimuli/organized/STATE/USED/Scrayons2.jpg","1"
"","1617","html-button-response","228","2.0.0","449051","p0vtkkgqpg4","mouse","Nope","0","Which of these items did you see earlier?","","","","","test","","state","true","stimuli/organized/STATE/USED/Sbureau2.JPG","stimuli/organized/STATE/USED/Sbureau1.JPG","0"
"","4149","html-button-response","229","2.0.0","453201","p0vtkkgqpg4","mouse","Nope","0","Which of these items did you see earlier?","","","","","test","","state","true","stimuli/organized/STATE/USED/Sbabytoy1.JPG","stimuli/organized/STATE/USED/Sbabytoy2.JPG","0"
"","2282","html-button-response","230","2.0.0","455484","p0vtkkgqpg4","mouse","Nope","1","Which of these items did you see earlier?","","","","","test","","exemplar","true","stimuli/organized/EXEMPLAR/USED/Eframe1.jpg","stimuli/organized/EXEMPLAR/USED/Eframe2.jpg","1"
"","1565","html-button-response","231","2.0.0","457051","p0vtkkgqpg4","mouse","Nope","1","Which of these items did you see earlier?","","","","","test","","state","false","stimuli/organized/STATE/USED/Sbooks2.JPG","stimuli/organized/STATE/USED/Sbooks1.JPG","0"
"","807","html-button-response","232","2.0.0","457859","p0vtkkgqpg4","mouse","Nope","1","Which of these items did you see earlier?","","","","","test","","novel","true","stimuli/organized/Novel pairs (tested)/n01aladybug.jpg","stimuli/organized/Novel pairs (tested)/n01bcoin.jpg","1"
"","1357","html-button-response","233","2.0.0","459217","p0vtkkgqpg4","mouse","Nope","0","Which of these items did you see earlier?","","","","","test","","state","false","stimuli/organized/STATE/USED/Sscanner2.JPG","stimuli/organized/STATE/USED/Sscanner1.JPG","1"
"","1116","html-button-response","234","2.0.0","460334","p0vtkkgqpg4","mouse","Nope","0","Which of these items did you see earlier?","","","","","test","","state","true","stimuli/organized/STATE/USED/Shairbrush1.jpg","stimuli/organized/STATE/USED/Shairbrush2.jpg","0"
"","2223","html-button-response","235","2.0.0","462559","p0vtkkgqpg4","mouse","Nope","1","Which of these items did you see earlier?","","","","","test","","novel","true","stimuli/organized/Novel pairs (tested)/n04ayarn.jpg","stimuli/organized/Novel pairs (tested)/n04bbandaid.jpg","1"
"","2615","html-button-response","236","2.0.0","465176","p0vtkkgqpg4","mouse","Nope","0","Which of these items did you see earlier?","","","","","test","","state","false","stimuli/organized/STATE/USED/Sfiretrucktoy2.jpg","stimuli/organized/STATE/USED/Sfiretrucktoy1.jpg","1"
"","2165","html-button-response","237","2.0.0","467342","p0vtkkgqpg4","mouse","Nope","0","Which of these items did you see earlier?","","","","","test","","exemplar","false","stimuli/organized/EXEMPLAR/USED/Ebicycle1.jpg","stimuli/organized/EXEMPLAR/USED/Ebicycle2.jpg","1"
"","2932","html-button-response","238","2.0.0","470276","p0vtkkgqpg4","mouse","Nope","1","Which of these items did you see earlier?","","","","","test","","exemplar","true","stimuli/organized/EXEMPLAR/USED/Ecamera2.jpg","stimuli/organized/EXEMPLAR/USED/Ecamera1.jpg","1"
"","1531","html-button-response","239","2.0.0","471809","p0vtkkgqpg4","mouse","Nope","1","Which of these items did you see earlier?","","","","","test","","state","true","stimuli/organized/STATE/USED/Sdresser1.jpg","stimuli/organized/STATE/USED/Sdresser2.jpg","1"
"","2924","html-button-response","240","2.0.0","474734","p0vtkkgqpg4","mouse","Nope","0","Which of these items did you see earlier?","","","","","test","","exemplar","false","stimuli/organized/EXEMPLAR/USED/Edispenser1.jpg","stimuli/organized/EXEMPLAR/USED/Edispenser2.jpg","1"
"","1290","html-button-response","241","2.0.0","476026","p0vtkkgqpg4","mouse","Nope","0","Which of these items did you see earlier?","","","","","test","","state","true","stimuli/organized/STATE/USED/Slaptop1.JPG","stimuli/organized/STATE/USED/Slaptop2.JPG","0"
"","1795","html-button-response","242","2.0.0","477822","p0vtkkgqpg4","mouse","Nope","0","Which of these items did you see earlier?","","","","","test","","state","true","stimuli/organized/STATE/USED/Sgiftbox2.jpg","stimuli/organized/STATE/USED/Sgiftbox1.jpg","0"
"","2020","html-button-response","243","2.0.0","479843","p0vtkkgqpg4","mouse","Nope","1","Which of these items did you see earlier?","","","","","test","","novel","true","stimuli/organized/Novel pairs (tested)/n15bfootball.jpg","stimuli/organized/Novel pairs (tested)/n15aspiderweb.jpg","1"
"","5094","survey-html-form","244","2.0.0","484939","p0vtkkgqpg4","mouse","Nope","{""age"":""21"",""gender"":""female"",""memory_experiment_experience"":""yes""}","","","","","","","","","","","",""
"","30264","survey-text","245","2.0.0","515206","p0vtkkgqpg4","mouse","Nope","{""task_guess"":""If the consistent visuals of an image or item impacts your memory of similar items.""}","","","","","","","","","","","",""
"","1811","survey-text","246","2.0.0","517018","p0vtkkgqpg4","mouse","Nope","{""technical_issues_question"":""Nope""}","","","","","","","","","","","",""
