"success","rt","trial_type","trial_index","plugin_version","time_elapsed","random_id","participant","technical_issues","response","stimulus","timeout","failed_images","failed_audio","failed_video","trial_phase","is_repeat","test_type","correct","old_image","new_image","correct_position"
"true","62589","fullscreen","0","null","63620","p149b8g84l6","jaguar","N/A","","","","","","","","","","","","",""
"","2949","survey-text","1","2.0.0","66590","p149b8g84l6","jaguar","N/A","{""participant_id"":""jaguar""}","","","","","","","","","","","",""
"","14141","html-keyboard-response","2","2.0.0","80734","p149b8g84l6","jaguar","N/A","j","
      <p>In this experiment, a series of objects will be displayed.</p>
      <p>Try to memorize as much as possible about the objects.</p>
      <p>If the image is a <strong> repeat</strong>, press the SPACEBAR.</p>
      <p>Press any key to begin.</p>
    ","","","","","","","","","","",""
"true","","preload","3","2.0.0","81327","p149b8g84l6","jaguar","N/A","","","false","[]","[]","[]","","","","","","",""
"","null","html-keyboard-response","4","2.0.0","82332","p149b8g84l6","jaguar","N/A","null","<div style=""font-size:60px;"">+</div>","","","","","","","","","","",""
"","null","image-keyboard-response","5","2.0.0","85355","p149b8g84l6","jaguar","N/A","null","stimuli/organized/STATE/USED/Sbelt1.jpg","","","","","memory","false","state","true","","",""
"","null","html-keyboard-response","6","2.0.0","86362","p149b8g84l6","jaguar","N/A","null","<div style=""font-size:60px; color:black;"">+</div>","","","","","","","","","","",""
"","null","image-keyboard-response","7","2.0.0","89374","p149b8g84l6","jaguar","N/A","null","stimuli/organized/STATE/USED/Spie1.JPG","","","","","memory","false","state","true","","",""
"","null","html-keyboard-response","8","2.0.0","90391","p149b8g84l6","jaguar","N/A","null","<div style=""font-size:60px; color:black;"">+</div>","","","","","","","","","","",""
"","null","image-keyboard-response","9","2.0.0","93401","p149b8g84l6","jaguar","N/A","null","stimuli/organized/STATE/USED/Sdrum1.jpg","","","","","memory","false","state","true","","",""
"","null","html-keyboard-response","10","2.0.0","94414","p149b8g84l6","jaguar","N/A","null","<div style=""font-size:60px; color:black;"">+</div>","","","","","","","","","","",""
"","null","image-keyboard-response","11","2.0.0","97420","p149b8g84l6","jaguar","N/A","null","stimuli/organized/EXEMPLAR/USED/Ebread2.jpg","","","","","memory","false","exemplar","true","","",""
"","null","html-keyboard-response","12","2.0.0","98427","p149b8g84l6","jaguar","N/A","null","<div style=""font-size:60px; color:black;"">+</div>","","","","","","","","","","",""
"","null","image-keyboard-response","13","2.0.0","101433","p149b8g84l6","jaguar","N/A","null","stimuli/organized/EXEMPLAR/USED/Ecamera1.jpg","","","","","memory","false","exemplar","true","","",""
"","null","html-keyboard-response","14","2.0.0","102435","p149b8g84l6","jaguar","N/A","null","<div style=""font-size:60px; color:black;"">+</div>","","","","","","","","","","",""
"","null","image-keyboard-response","15","2.0.0","105445","p149b8g84l6","jaguar","N/A","null","stimuli/organized/STATE/USED/Schinesefoodbox1.jpg","","","","","memory","false","state","true","","",""
"","null","html-keyboard-response","16","2.0.0","106460","p149b8g84l6","jaguar","N/A","null","<div style=""font-size:60px; color:black;"">+</div>","","","","","","","","","","",""
"","null","image-keyboard-response","17","2.0.0","109466","p149b8g84l6","jaguar","N/A","null","stimuli/organized/EXEMPLAR/USED/Efeather1.jpg","","","","","memory","false","exemplar","true","","",""
"","null","html-keyboard-response","18","2.0.0","110475","p149b8g84l6","jaguar","N/A","null","<div style=""font-size:60px; color:black;"">+</div>","","","","","","","","","","",""
"","null","image-keyboard-response","19","2.0.0","113481","p149b8g84l6","jaguar","N/A","null","stimuli/organized/STATE/USED/Sjuiceglass1.JPG","","","","","memory","false","state","true","","",""
"","null","html-keyboard-response","20","2.0.0","114487","p149b8g84l6","jaguar","N/A","null","<div style=""font-size:60px; color:black;"">+</div>","","","","","","","","","","",""
"","null","image-keyboard-response","21","2.0.0","117503","p149b8g84l6","jaguar","N/A","null","stimuli/organized/EXEMPLAR/USED/Eglobe1.jpg","","","","","memory","false","exemplar","true","","",""
"","null","html-keyboard-response","22","2.0.0","118513","p149b8g84l6","jaguar","N/A","null","<div style=""font-size:60px; color:black;"">+</div>","","","","","","","","","","",""
"","null","image-keyboard-response","23","2.0.0","121516","p149b8g84l6","jaguar","N/A","null","stimuli/organized/EXEMPLAR/USED/Ecalculator1.jpg","","","","","memory","false","exemplar","true","","",""
"","null","html-keyboard-response","24","2.0.0","122527","p149b8g84l6","jaguar","N/A","null","<div style=""font-size:60px; color:black;"">+</div>","","","","","","","","","","",""
"","null","image-keyboard-response","25","2.0.0","125545","p149b8g84l6","jaguar","N/A","null","stimuli/organized/Novel pairs (tested)/n09bsaddle.jpg","","","","","memory","false","novel","true","","",""
"","null","html-keyboard-response","26","2.0.0","126553","p149b8g84l6","jaguar","N/A","null","<div style=""font-size:60px; color:black;"">+</div>","","","","","","","","","","",""
"","null","image-keyboard-response","27","2.0.0","129563","p149b8g84l6","jaguar","N/A","null","stimuli/organized/EXEMPLAR/USED/Echisel2.jpg","","","","","memory","false","exemplar","true","","",""
"","null","html-keyboard-response","28","2.0.0","130570","p149b8g84l6","jaguar","N/A","null","<div style=""font-size:60px; color:black;"">+</div>","","","","","","","","","","",""
"","null","image-keyboard-response","29","2.0.0","133579","p149b8g84l6","jaguar","N/A","null","stimuli/organized/Novel pairs (tested)/n03bbagel.jpg","","","","","memory","false","novel","true","","",""
"","null","html-keyboard-response","30","2.0.0","134585","p149b8g84l6","jaguar","N/A","null","<div style=""font-size:60px; color:black;"">+</div>","","","","","","","","","","",""
"","null","image-keyboard-response","31","2.0.0","137589","p149b8g84l6","jaguar","N/A","null","stimuli/organized/EXEMPLAR/USED/Echocolatebar1.jpg","","","","","memory","false","exemplar","true","","",""
"","null","html-keyboard-response","32","2.0.0","138598","p149b8g84l6","jaguar","N/A","null","<div style=""font-size:60px; color:black;"">+</div>","","","","","","","","","","",""
"","null","image-keyboard-response","33","2.0.0","141605","p149b8g84l6","jaguar","N/A","null","stimuli/organized/Novel pairs (tested)/n02aaxe.jpg","","","","","memory","false","novel","true","","",""
"","null","html-keyboard-response","34","2.0.0","142609","p149b8g84l6","jaguar","N/A","null","<div style=""font-size:60px; color:black;"">+</div>","","","","","","","","","","",""
"","null","image-keyboard-response","35","2.0.0","145620","p149b8g84l6","jaguar","N/A","null","stimuli/organized/STATE/USED/Sdonut2.jpg","","","","","memory","false","state","true","","",""
"","null","html-keyboard-response","36","2.0.0","146632","p149b8g84l6","jaguar","N/A","null","<div style=""font-size:60px; color:black;"">+</div>","","","","","","","","","","",""
"","null","image-keyboard-response","37","2.0.0","149649","p149b8g84l6","jaguar","N/A","null","stimuli/organized/STATE/USED/Sbooks2.JPG","","","","","memory","false","state","true","","",""
"","null","html-keyboard-response","38","2.0.0","150652","p149b8g84l6","jaguar","N/A","null","<div style=""font-size:60px; color:black;"">+</div>","","","","","","","","","","",""
"","null","image-keyboard-response","39","2.0.0","153660","p149b8g84l6","jaguar","N/A","null","stimuli/organized/EXEMPLAR/USED/Ecar1.jpg","","","","","memory","false","exemplar","true","","",""
"","null","html-keyboard-response","40","2.0.0","154667","p149b8g84l6","jaguar","N/A","null","<div style=""font-size:60px; color:black;"">+</div>","","","","","","","","","","",""
"","null","image-keyboard-response","41","2.0.0","157676","p149b8g84l6","jaguar","N/A","null","stimuli/organized/EXEMPLAR/USED/Egrapes1.jpg","","","","","memory","false","exemplar","true","","",""
"","null","html-keyboard-response","42","2.0.0","158687","p149b8g84l6","jaguar","N/A","null","<div style=""font-size:60px; color:black;"">+</div>","","","","","","","","","","",""
"","null","image-keyboard-response","43","2.0.0","161693","p149b8g84l6","jaguar","N/A","null","stimuli/organized/STATE/USED/Sscissors2.JPG","","","","","memory","false","state","true","","",""
"","null","html-keyboard-response","44","2.0.0","162710","p149b8g84l6","jaguar","N/A","null","<div style=""font-size:60px; color:black;"">+</div>","","","","","","","","","","",""
"","null","image-keyboard-response","45","2.0.0","165718","p149b8g84l6","jaguar","N/A","null","stimuli/organized/Novel pairs (tested)/n01bcoin.jpg","","","","","memory","false","novel","true","","",""
"","null","html-keyboard-response","46","2.0.0","166732","p149b8g84l6","jaguar","N/A","null","<div style=""font-size:60px; color:black;"">+</div>","","","","","","","","","","",""
"","null","image-keyboard-response","47","2.0.0","169740","p149b8g84l6","jaguar","N/A","null","stimuli/organized/EXEMPLAR/USED/Ebracelet2.jpg","","","","","memory","false","exemplar","true","","",""
"","null","html-keyboard-response","48","2.0.0","170743","p149b8g84l6","jaguar","N/A","null","<div style=""font-size:60px; color:black;"">+</div>","","","","","","","","","","",""
"","null","image-keyboard-response","49","2.0.0","173752","p149b8g84l6","jaguar","N/A","null","stimuli/organized/Novel pairs (tested)/n16abananas.jpg","","","","","memory","false","novel","true","","",""
"","null","html-keyboard-response","50","2.0.0","174768","p149b8g84l6","jaguar","N/A","null","<div style=""font-size:60px; color:black;"">+</div>","","","","","","","","","","",""
"","null","image-keyboard-response","51","2.0.0","177778","p149b8g84l6","jaguar","N/A","null","stimuli/organized/Novel pairs (tested)/n19bhairbrush.jpg","","","","","memory","false","novel","true","","",""
"","null","html-keyboard-response","52","2.0.0","178787","p149b8g84l6","jaguar","N/A","null","<div style=""font-size:60px; color:black;"">+</div>","","","","","","","","","","",""
"","null","image-keyboard-response","53","2.0.0","181790","p149b8g84l6","jaguar","N/A","null","stimuli/organized/Novel pairs (tested)/n18bsnail.jpg","","","","","memory","false","novel","true","","",""
"","null","html-keyboard-response","54","2.0.0","182805","p149b8g84l6","jaguar","N/A","null","<div style=""font-size:60px; color:black;"">+</div>","","","","","","","","","","",""
"","null","image-keyboard-response","55","2.0.0","185812","p149b8g84l6","jaguar","N/A","null","stimuli/organized/EXEMPLAR/USED/Eframe2.jpg","","","","","memory","false","exemplar","true","","",""
"","null","html-keyboard-response","56","2.0.0","186827","p149b8g84l6","jaguar","N/A","null","<div style=""font-size:60px; color:black;"">+</div>","","","","","","","","","","",""
"","null","image-keyboard-response","57","2.0.0","189831","p149b8g84l6","jaguar","N/A","null","stimuli/organized/Novel pairs (tested)/n05abarrel.jpg","","","","","memory","false","novel","true","","",""
"","null","html-keyboard-response","58","2.0.0","190838","p149b8g84l6","jaguar","N/A","null","<div style=""font-size:60px; color:black;"">+</div>","","","","","","","","","","",""
"","null","image-keyboard-response","59","2.0.0","193844","p149b8g84l6","jaguar","N/A","null","stimuli/organized/STATE/USED/Sdishes1.JPG","","","","","memory","false","state","true","","",""
"","null","html-keyboard-response","60","2.0.0","194848","p149b8g84l6","jaguar","N/A","null","<div style=""font-size:60px; color:black;"">+</div>","","","","","","","","","","",""
"","null","image-keyboard-response","61","2.0.0","197858","p149b8g84l6","jaguar","N/A","null","stimuli/organized/STATE/USED/Sdresser1.jpg","","","","","memory","false","state","true","","",""
"","null","html-keyboard-response","62","2.0.0","198874","p149b8g84l6","jaguar","N/A","null","<div style=""font-size:60px; color:black;"">+</div>","","","","","","","","","","",""
"","null","image-keyboard-response","63","2.0.0","201879","p149b8g84l6","jaguar","N/A","null","stimuli/organized/STATE/USED/Sscanner2.JPG","","","","","memory","false","state","true","","",""
"","null","html-keyboard-response","64","2.0.0","202888","p149b8g84l6","jaguar","N/A","null","<div style=""font-size:60px; color:black;"">+</div>","","","","","","","","","","",""
"","null","image-keyboard-response","65","2.0.0","205906","p149b8g84l6","jaguar","N/A","null","stimuli/organized/EXEMPLAR/USED/Edispenser1.jpg","","","","","memory","false","exemplar","true","","",""
"","null","html-keyboard-response","66","2.0.0","206911","p149b8g84l6","jaguar","N/A","null","<div style=""font-size:60px; color:black;"">+</div>","","","","","","","","","","",""
"","null","image-keyboard-response","67","2.0.0","209915","p149b8g84l6","jaguar","N/A","null","stimuli/organized/Novel pairs (tested)/n14bgolfball.jpg","","","","","memory","false","novel","true","","",""
"","null","html-keyboard-response","68","2.0.0","210919","p149b8g84l6","jaguar","N/A","null","<div style=""font-size:60px; color:black;"">+</div>","","","","","","","","","","",""
"","null","image-keyboard-response","69","2.0.0","213931","p149b8g84l6","jaguar","N/A","null","stimuli/organized/STATE/USED/Scrayons1.jpg","","","","","memory","false","state","true","","",""
"","null","html-keyboard-response","70","2.0.0","214942","p149b8g84l6","jaguar","N/A","null","<div style=""font-size:60px; color:black;"">+</div>","","","","","","","","","","",""
"","null","image-keyboard-response","71","2.0.0","217953","p149b8g84l6","jaguar","N/A","null","stimuli/organized/Novel pairs (tested)/n10awindmill.jpg","","","","","memory","false","novel","true","","",""
"","null","html-keyboard-response","72","2.0.0","218956","p149b8g84l6","jaguar","N/A","null","<div style=""font-size:60px; color:black;"">+</div>","","","","","","","","","","",""
"","null","image-keyboard-response","73","2.0.0","221968","p149b8g84l6","jaguar","N/A","null","stimuli/organized/Novel pairs (tested)/n13bdustpan.jpg","","","","","memory","false","novel","true","","",""
"","null","html-keyboard-response","74","2.0.0","222980","p149b8g84l6","jaguar","N/A","null","<div style=""font-size:60px; color:black;"">+</div>","","","","","","","","","","",""
"","null","image-keyboard-response","75","2.0.0","225990","p149b8g84l6","jaguar","N/A","null","stimuli/organized/STATE/USED/Scoffeemaker2.JPG","","","","","memory","false","state","true","","",""
"","null","html-keyboard-response","76","2.0.0","227000","p149b8g84l6","jaguar","N/A","null","<div style=""font-size:60px; color:black;"">+</div>","","","","","","","","","","",""
"","1029","image-keyboard-response","77","2.0.0","230004","p149b8g84l6","jaguar","N/A"," ","stimuli/organized/EXEMPLAR/USED/Edispenser1.jpg","","","","","memory","true","exemplar","true","","",""
"","null","html-keyboard-response","78","2.0.0","231015","p149b8g84l6","jaguar","N/A","null","<div style=""font-size:60px; color:green;"">+</div>","","","","","","","","","","",""
"","null","image-keyboard-response","79","2.0.0","234022","p149b8g84l6","jaguar","N/A","null","stimuli/organized/STATE/USED/Sgiftbox1.jpg","","","","","memory","false","state","true","","",""
"","null","html-keyboard-response","80","2.0.0","235027","p149b8g84l6","jaguar","N/A","null","<div style=""font-size:60px; color:black;"">+</div>","","","","","","","","","","",""
"","null","image-keyboard-response","81","2.0.0","238031","p149b8g84l6","jaguar","N/A","null","stimuli/organized/Novel pairs (tested)/n04bbandaid.jpg","","","","","memory","false","novel","true","","",""
"","null","html-keyboard-response","82","2.0.0","239038","p149b8g84l6","jaguar","N/A","null","<div style=""font-size:60px; color:black;"">+</div>","","","","","","","","","","",""
"","null","image-keyboard-response","83","2.0.0","242040","p149b8g84l6","jaguar","N/A","null","stimuli/organized/STATE/USED/Sgrinder2.jpg","","","","","memory","false","state","true","","",""
"","null","html-keyboard-response","84","2.0.0","243062","p149b8g84l6","jaguar","N/A","null","<div style=""font-size:60px; color:black;"">+</div>","","","","","","","","","","",""
"","null","image-keyboard-response","85","2.0.0","246075","p149b8g84l6","jaguar","N/A","null","stimuli/organized/STATE/USED/Sabacus2.jpg","","","","","memory","false","state","true","","",""
"","null","html-keyboard-response","86","2.0.0","247080","p149b8g84l6","jaguar","N/A","null","<div style=""font-size:60px; color:black;"">+</div>","","","","","","","","","","",""
"","null","image-keyboard-response","87","2.0.0","250089","p149b8g84l6","jaguar","N/A","null","stimuli/organized/EXEMPLAR/USED/Ebell1.jpg","","","","","memory","false","exemplar","true","","",""
"","null","html-keyboard-response","88","2.0.0","251104","p149b8g84l6","jaguar","N/A","null","<div style=""font-size:60px; color:black;"">+</div>","","","","","","","","","","",""
"","null","image-keyboard-response","89","2.0.0","254115","p149b8g84l6","jaguar","N/A","null","stimuli/organized/EXEMPLAR/USED/Ebasket1.jpg","","","","","memory","false","exemplar","true","","",""
"","null","html-keyboard-response","90","2.0.0","255120","p149b8g84l6","jaguar","N/A","null","<div style=""font-size:60px; color:black;"">+</div>","","","","","","","","","","",""
"","null","image-keyboard-response","91","2.0.0","258125","p149b8g84l6","jaguar","N/A","null","stimuli/organized/EXEMPLAR/USED/Efan2.jpg","","","","","memory","false","exemplar","true","","",""
"","null","html-keyboard-response","92","2.0.0","259137","p149b8g84l6","jaguar","N/A","null","<div style=""font-size:60px; color:black;"">+</div>","","","","","","","","","","",""
"","null","image-keyboard-response","93","2.0.0","262148","p149b8g84l6","jaguar","N/A","null","stimuli/organized/EXEMPLAR/USED/Egoggles2.jpg","","","","","memory","false","exemplar","true","","",""
"","null","html-keyboard-response","94","2.0.0","263151","p149b8g84l6","jaguar","N/A","null","<div style=""font-size:60px; color:black;"">+</div>","","","","","","","","","","",""
"","null","image-keyboard-response","95","2.0.0","266170","p149b8g84l6","jaguar","N/A","null","stimuli/organized/STATE/USED/Sbottles2.JPG","","","","","memory","false","state","true","","",""
"","null","html-keyboard-response","96","2.0.0","267185","p149b8g84l6","jaguar","N/A","null","<div style=""font-size:60px; color:black;"">+</div>","","","","","","","","","","",""
"","null","image-keyboard-response","97","2.0.0","270195","p149b8g84l6","jaguar","N/A","null","stimuli/organized/STATE/USED/Slaptop2.JPG","","","","","memory","false","state","true","","",""
"","null","html-keyboard-response","98","2.0.0","271202","p149b8g84l6","jaguar","N/A","null","<div style=""font-size:60px; color:black;"">+</div>","","","","","","","","","","",""
"","null","image-keyboard-response","99","2.0.0","274211","p149b8g84l6","jaguar","N/A","null","stimuli/organized/Novel pairs (tested)/n20acarseat.jpg","","","","","memory","false","novel","true","","",""
"","null","html-keyboard-response","100","2.0.0","275213","p149b8g84l6","jaguar","N/A","null","<div style=""font-size:60px; color:black;"">+</div>","","","","","","","","","","",""
"","null","image-keyboard-response","101","2.0.0","278224","p149b8g84l6","jaguar","N/A","null","stimuli/organized/Novel pairs (tested)/n15bfootball.jpg","","","","","memory","false","novel","true","","",""
"","null","html-keyboard-response","102","2.0.0","279228","p149b8g84l6","jaguar","N/A","null","<div style=""font-size:60px; color:black;"">+</div>","","","","","","","","","","",""
"","null","image-keyboard-response","103","2.0.0","282235","p149b8g84l6","jaguar","N/A","null","stimuli/organized/STATE/USED/Sbrushes2.jpg","","","","","memory","false","state","true","","",""
"","null","html-keyboard-response","104","2.0.0","283244","p149b8g84l6","jaguar","N/A","null","<div style=""font-size:60px; color:black;"">+</div>","","","","","","","","","","",""
"","null","image-keyboard-response","105","2.0.0","286259","p149b8g84l6","jaguar","N/A","null","stimuli/organized/EXEMPLAR/USED/Ebicycle1.jpg","","","","","memory","false","exemplar","true","","",""
"","null","html-keyboard-response","106","2.0.0","287268","p149b8g84l6","jaguar","N/A","null","<div style=""font-size:60px; color:black;"">+</div>","","","","","","","","","","",""
"","null","image-keyboard-response","107","2.0.0","290279","p149b8g84l6","jaguar","N/A","null","stimuli/organized/Novel pairs (tested)/n12atelescope.jpg","","","","","memory","false","novel","true","","",""
"","null","html-keyboard-response","108","2.0.0","291288","p149b8g84l6","jaguar","N/A","null","<div style=""font-size:60px; color:black;"">+</div>","","","","","","","","","","",""
"","null","image-keyboard-response","109","2.0.0","294304","p149b8g84l6","jaguar","N/A","null","stimuli/organized/EXEMPLAR/USED/Econe2.jpg","","","","","memory","false","exemplar","true","","",""
"","null","html-keyboard-response","110","2.0.0","295307","p149b8g84l6","jaguar","N/A","null","<div style=""font-size:60px; color:black;"">+</div>","","","","","","","","","","",""
"","null","image-keyboard-response","111","2.0.0","298309","p149b8g84l6","jaguar","N/A","null","stimuli/organized/STATE/USED/Sdryer1.jpg","","","","","memory","false","state","true","","",""
"","null","html-keyboard-response","112","2.0.0","299313","p149b8g84l6","jaguar","N/A","null","<div style=""font-size:60px; color:black;"">+</div>","","","","","","","","","","",""
"","null","image-keyboard-response","113","2.0.0","302319","p149b8g84l6","jaguar","N/A","null","stimuli/organized/STATE/USED/Sapplesgreenbasket2.jpg","","","","","memory","false","state","true","","",""
"","null","html-keyboard-response","114","2.0.0","303337","p149b8g84l6","jaguar","N/A","null","<div style=""font-size:60px; color:black;"">+</div>","","","","","","","","","","",""
"","null","image-keyboard-response","115","2.0.0","306351","p149b8g84l6","jaguar","N/A","null","stimuli/organized/EXEMPLAR/USED/Ecabinet1.jpg","","","","","memory","false","exemplar","true","","",""
"","null","html-keyboard-response","116","2.0.0","307356","p149b8g84l6","jaguar","N/A","null","<div style=""font-size:60px; color:black;"">+</div>","","","","","","","","","","",""
"","null","image-keyboard-response","117","2.0.0","310364","p149b8g84l6","jaguar","N/A","null","stimuli/organized/STATE/USED/Sgiftbag1.jpg","","","","","memory","false","state","true","","",""
"","null","html-keyboard-response","118","2.0.0","311366","p149b8g84l6","jaguar","N/A","null","<div style=""font-size:60px; color:black;"">+</div>","","","","","","","","","","",""
"","null","image-keyboard-response","119","2.0.0","314370","p149b8g84l6","jaguar","N/A","null","stimuli/organized/STATE/USED/Scontainer2.JPG","","","","","memory","false","state","true","","",""
"","null","html-keyboard-response","120","2.0.0","315377","p149b8g84l6","jaguar","N/A","null","<div style=""font-size:60px; color:black;"">+</div>","","","","","","","","","","",""
"","null","image-keyboard-response","121","2.0.0","318384","p149b8g84l6","jaguar","N/A","null","stimuli/organized/STATE/USED/Sbriefcase1.jpg","","","","","memory","false","state","true","","",""
"","null","html-keyboard-response","122","2.0.0","319391","p149b8g84l6","jaguar","N/A","null","<div style=""font-size:60px; color:black;"">+</div>","","","","","","","","","","",""
"","null","image-keyboard-response","123","2.0.0","322401","p149b8g84l6","jaguar","N/A","null","stimuli/organized/STATE/USED/Sbox2.jpg","","","","","memory","false","state","true","","",""
"","null","html-keyboard-response","124","2.0.0","323405","p149b8g84l6","jaguar","N/A","null","<div style=""font-size:60px; color:black;"">+</div>","","","","","","","","","","",""
"","null","image-keyboard-response","125","2.0.0","326408","p149b8g84l6","jaguar","N/A","null","stimuli/organized/Novel pairs (tested)/n07bswimmingpool.jpg","","","","","memory","false","novel","true","","",""
"","null","html-keyboard-response","126","2.0.0","327418","p149b8g84l6","jaguar","N/A","null","<div style=""font-size:60px; color:black;"">+</div>","","","","","","","","","","",""
"","null","image-keyboard-response","127","2.0.0","330437","p149b8g84l6","jaguar","N/A","null","stimuli/organized/STATE/USED/Scookies1.JPG","","","","","memory","false","state","true","","",""
"","null","html-keyboard-response","128","2.0.0","331449","p149b8g84l6","jaguar","N/A","null","<div style=""font-size:60px; color:black;"">+</div>","","","","","","","","","","",""
"","null","image-keyboard-response","129","2.0.0","334457","p149b8g84l6","jaguar","N/A","null","stimuli/organized/STATE/USED/Sdie2.jpg","","","","","memory","false","state","true","","",""
"","null","html-keyboard-response","130","2.0.0","335460","p149b8g84l6","jaguar","N/A","null","<div style=""font-size:60px; color:black;"">+</div>","","","","","","","","","","",""
"","null","image-keyboard-response","131","2.0.0","338463","p149b8g84l6","jaguar","N/A","null","stimuli/organized/Novel pairs (tested)/n06acane.jpg","","","","","memory","false","novel","true","","",""
"","null","html-keyboard-response","132","2.0.0","339467","p149b8g84l6","jaguar","N/A","null","<div style=""font-size:60px; color:black;"">+</div>","","","","","","","","","","",""
"","null","image-keyboard-response","133","2.0.0","342474","p149b8g84l6","jaguar","N/A","null","stimuli/organized/STATE/USED/Sfiretrucktoy1.jpg","","","","","memory","false","state","true","","",""
"","null","html-keyboard-response","134","2.0.0","343491","p149b8g84l6","jaguar","N/A","null","<div style=""font-size:60px; color:black;"">+</div>","","","","","","","","","","",""
"","null","image-keyboard-response","135","2.0.0","346497","p149b8g84l6","jaguar","N/A","null","stimuli/organized/STATE/USED/Seggs2.jpg","","","","","memory","false","state","true","","",""
"","null","html-keyboard-response","136","2.0.0","347504","p149b8g84l6","jaguar","N/A","null","<div style=""font-size:60px; color:black;"">+</div>","","","","","","","","","","",""
"","1155","image-keyboard-response","137","2.0.0","350508","p149b8g84l6","jaguar","N/A"," ","stimuli/organized/Novel pairs (tested)/n15bfootball.jpg","","","","","memory","true","novel","true","","",""
"","null","html-keyboard-response","138","2.0.0","351517","p149b8g84l6","jaguar","N/A","null","<div style=""font-size:60px; color:green;"">+</div>","","","","","","","","","","",""
"","null","image-keyboard-response","139","2.0.0","354527","p149b8g84l6","jaguar","N/A","null","stimuli/organized/STATE/USED/Sbureau2.JPG","","","","","memory","false","state","true","","",""
"","null","html-keyboard-response","140","2.0.0","355531","p149b8g84l6","jaguar","N/A","null","<div style=""font-size:60px; color:black;"">+</div>","","","","","","","","","","",""
"","1095","image-keyboard-response","141","2.0.0","358541","p149b8g84l6","jaguar","N/A"," ","stimuli/organized/STATE/USED/Scontainer2.JPG","","","","","memory","true","state","true","","",""
"","null","html-keyboard-response","142","2.0.0","359550","p149b8g84l6","jaguar","N/A","null","<div style=""font-size:60px; color:green;"">+</div>","","","","","","","","","","",""
"","null","image-keyboard-response","143","2.0.0","362566","p149b8g84l6","jaguar","N/A","null","stimuli/organized/STATE/USED/Sphone2.JPG","","","","","memory","false","state","true","","",""
"","null","html-keyboard-response","144","2.0.0","363583","p149b8g84l6","jaguar","N/A","null","<div style=""font-size:60px; color:black;"">+</div>","","","","","","","","","","",""
"","null","image-keyboard-response","145","2.0.0","366590","p149b8g84l6","jaguar","N/A","null","stimuli/organized/Novel pairs (tested)/n11bsock.jpg","","","","","memory","false","novel","true","","",""
"","null","html-keyboard-response","146","2.0.0","367598","p149b8g84l6","jaguar","N/A","null","<div style=""font-size:60px; color:black;"">+</div>","","","","","","","","","","",""
"","null","image-keyboard-response","147","2.0.0","370610","p149b8g84l6","jaguar","N/A","null","stimuli/organized/STATE/USED/Sbreadbox1.JPG","","","","","memory","false","state","true","","",""
"","null","html-keyboard-response","148","2.0.0","371618","p149b8g84l6","jaguar","N/A","null","<div style=""font-size:60px; color:black;"">+</div>","","","","","","","","","","",""
"","null","image-keyboard-response","149","2.0.0","374627","p149b8g84l6","jaguar","N/A","null","stimuli/organized/STATE/USED/Spotpan2.JPG","","","","","memory","false","state","true","","",""
"","null","html-keyboard-response","150","2.0.0","375630","p149b8g84l6","jaguar","N/A","null","<div style=""font-size:60px; color:black;"">+</div>","","","","","","","","","","",""
"","null","image-keyboard-response","151","2.0.0","378639","p149b8g84l6","jaguar","N/A","null","stimuli/organized/Novel pairs (tested)/n17avendingmachine.jpg","","","","","memory","false","novel","true","","",""
"","null","html-keyboard-response","152","2.0.0","379657","p149b8g84l6","jaguar","N/A","null","<div style=""font-size:60px; color:black;"">+</div>","","","","","","","","","","",""
"","null","image-keyboard-response","153","2.0.0","382669","p149b8g84l6","jaguar","N/A","null","stimuli/organized/Novel pairs (tested)/n08aoven.jpg","","","","","memory","false","novel","true","","",""
"","null","html-keyboard-response","154","2.0.0","383680","p149b8g84l6","jaguar","N/A","null","<div style=""font-size:60px; color:black;"">+</div>","","","","","","","","","","",""
"","null","image-keyboard-response","155","2.0.0","386688","p149b8g84l6","jaguar","N/A","null","stimuli/organized/EXEMPLAR/USED/Egame2.jpg","","","","","memory","false","exemplar","true","","",""
"","null","html-keyboard-response","156","2.0.0","387692","p149b8g84l6","jaguar","N/A","null","<div style=""font-size:60px; color:black;"">+</div>","","","","","","","","","","",""
"","1041","image-keyboard-response","157","2.0.0","390708","p149b8g84l6","jaguar","N/A"," ","stimuli/organized/STATE/USED/Scookies1.JPG","","","","","memory","true","state","true","","",""
"","null","html-keyboard-response","158","2.0.0","391724","p149b8g84l6","jaguar","N/A","null","<div style=""font-size:60px; color:green;"">+</div>","","","","","","","","","","",""
"","null","image-keyboard-response","159","2.0.0","394732","p149b8g84l6","jaguar","N/A","null","stimuli/organized/STATE/USED/Sflask1.jpg","","","","","memory","false","state","true","","",""
"","null","html-keyboard-response","160","2.0.0","395734","p149b8g84l6","jaguar","N/A","null","<div style=""font-size:60px; color:black;"">+</div>","","","","","","","","","","",""
"","null","image-keyboard-response","161","2.0.0","398743","p149b8g84l6","jaguar","N/A","null","stimuli/organized/STATE/USED/Sbabytoy1.JPG","","","","","memory","false","state","true","","",""
"","null","html-keyboard-response","162","2.0.0","399751","p149b8g84l6","jaguar","N/A","null","<div style=""font-size:60px; color:black;"">+</div>","","","","","","","","","","",""
"","null","image-keyboard-response","163","2.0.0","402763","p149b8g84l6","jaguar","N/A","null","stimuli/organized/STATE/USED/Shairbrush2.jpg","","","","","memory","false","state","true","","",""
"","null","html-keyboard-response","164","2.0.0","403766","p149b8g84l6","jaguar","N/A","null","<div style=""font-size:60px; color:black;"">+</div>","","","","","","","","","","",""
"","1042","image-keyboard-response","165","2.0.0","406779","p149b8g84l6","jaguar","N/A"," ","stimuli/organized/STATE/USED/Spotpan2.JPG","","","","","memory","true","state","true","","",""
"","27610","html-button-response","166","2.0.0","434398","p149b8g84l6","jaguar","N/A","0","<p>You have completed the study phase.</p><p>Take a short break. Press the button below when you are ready to continue.</p>","","","","","","","","","","",""
"","4530","html-keyboard-response","167","2.0.0","438929","p149b8g84l6","jaguar","N/A"," ","<p>You will now be shown pairs of images.</p><p>Select the image you remember seeing during the study phase.</p><p>Focus on accuracy, not speed.</p><p>Press any key to begin.</p>","","","","","","","","","","",""
"","3355","html-button-response","168","2.0.0","442287","p149b8g84l6","jaguar","N/A","0","Which of these items did you see earlier?","","","","","test","","exemplar","true","stimuli/organized/EXEMPLAR/USED/Ebell1.jpg","stimuli/organized/EXEMPLAR/USED/Ebell2.jpg","0"
"","1228","html-button-response","169","2.0.0","443518","p149b8g84l6","jaguar","N/A","0","Which of these items did you see earlier?","","","","","test","","novel","true","stimuli/organized/Novel pairs (tested)/n15bfootball.jpg","stimuli/organized/Novel pairs (tested)/n15aspiderweb.jpg","0"
"","2916","html-button-response","170","2.0.0","446436","p149b8g84l6","jaguar","N/A","0","Which of these items did you see earlier?","","","","","test","","state","true","stimuli/organized/STATE/USED/Sdonut2.jpg","stimuli/organized/STATE/USED/Sdonut1.jpg","0"
"","1334","html-button-response","171","2.0.0","447773","p149b8g84l6","jaguar","N/A","0","Which of these items did you see earlier?","","","","","test","","exemplar","true","stimuli/organized/EXEMPLAR/USED/Egame2.jpg","stimuli/organized/EXEMPLAR/USED/Egame1.jpg","0"
"","1489","html-button-response","172","2.0.0","449264","p149b8g84l6","jaguar","N/A","0","Which of these items did you see earlier?","","","","","test","","state","true","stimuli/organized/STATE/USED/Shairbrush2.jpg","stimuli/organized/STATE/USED/Shairbrush1.jpg","0"
"","3414","html-button-response","173","2.0.0","452681","p149b8g84l6","jaguar","N/A","1","Which of these items did you see earlier?","","","","","test","","state","true","stimuli/organized/STATE/USED/Sbriefcase1.jpg","stimuli/organized/STATE/USED/Sbriefcase2.jpg","1"
"","1459","html-button-response","174","2.0.0","454143","p149b8g84l6","jaguar","N/A","1","Which of these items did you see earlier?","","","","","test","","state","true","stimuli/organized/STATE/USED/Sdie2.jpg","stimuli/organized/STATE/USED/Sdie1.jpg","1"
"","4319","html-button-response","175","2.0.0","458465","p149b8g84l6","jaguar","N/A","1","Which of these items did you see earlier?","","","","","test","","state","true","stimuli/organized/STATE/USED/Sgrinder2.jpg","stimuli/organized/STATE/USED/Sgrinder1.jpg","1"
"","1066","html-button-response","176","2.0.0","459533","p149b8g84l6","jaguar","N/A","0","Which of these items did you see earlier?","","","","","test","","exemplar","true","stimuli/organized/EXEMPLAR/USED/Eglobe1.jpg","stimuli/organized/EXEMPLAR/USED/Eglobe2.jpg","0"
"","1559","html-button-response","177","2.0.0","461095","p149b8g84l6","jaguar","N/A","1","Which of these items did you see earlier?","","","","","test","","exemplar","true","stimuli/organized/EXEMPLAR/USED/Ebicycle1.jpg","stimuli/organized/EXEMPLAR/USED/Ebicycle2.jpg","1"
"","1921","html-button-response","178","2.0.0","463019","p149b8g84l6","jaguar","N/A","0","Which of these items did you see earlier?","","","","","test","","state","false","stimuli/organized/STATE/USED/Sjuiceglass1.JPG","stimuli/organized/STATE/USED/Sjuiceglass2.JPG","1"
"","1391","html-button-response","179","2.0.0","464413","p149b8g84l6","jaguar","N/A","1","Which of these items did you see earlier?","","","","","test","","exemplar","true","stimuli/organized/EXEMPLAR/USED/Ebasket1.jpg","stimuli/organized/EXEMPLAR/USED/Ebasket2.jpg","1"
"","2202","html-button-response","180","2.0.0","466617","p149b8g84l6","jaguar","N/A","0","Which of these items did you see earlier?","","","","","test","","exemplar","true","stimuli/organized/EXEMPLAR/USED/Egoggles2.jpg","stimuli/organized/EXEMPLAR/USED/Egoggles1.jpg","0"
"","1620","html-button-response","181","2.0.0","468240","p149b8g84l6","jaguar","N/A","1","Which of these items did you see earlier?","","","","","test","","novel","true","stimuli/organized/Novel pairs (tested)/n05abarrel.jpg","stimuli/organized/Novel pairs (tested)/n05bcactus.jpg","1"
"","1196","html-button-response","182","2.0.0","469438","p149b8g84l6","jaguar","N/A","1","Which of these items did you see earlier?","","","","","test","","state","true","stimuli/organized/STATE/USED/Schinesefoodbox1.jpg","stimuli/organized/STATE/USED/Schinesefoodbox2.jpg","1"
"","914","html-button-response","183","2.0.0","470355","p149b8g84l6","jaguar","N/A","0","Which of these items did you see earlier?","","","","","test","","exemplar","true","stimuli/organized/EXEMPLAR/USED/Econe2.jpg","stimuli/organized/EXEMPLAR/USED/Econe1.jpg","0"
"","1973","html-button-response","184","2.0.0","472329","p149b8g84l6","jaguar","N/A","1","Which of these items did you see earlier?","","","","","test","","state","true","stimuli/organized/STATE/USED/Scrayons1.jpg","stimuli/organized/STATE/USED/Scrayons2.jpg","1"
"","1059","html-button-response","185","2.0.0","473394","p149b8g84l6","jaguar","N/A","0","Which of these items did you see earlier?","","","","","test","","novel","true","stimuli/organized/Novel pairs (tested)/n07bswimmingpool.jpg","stimuli/organized/Novel pairs (tested)/n07apotato.jpg","0"
"","8697","html-button-response","186","2.0.0","482094","p149b8g84l6","jaguar","N/A","0","Which of these items did you see earlier?","","","","","test","","state","true","stimuli/organized/STATE/USED/Sabacus2.jpg","stimuli/organized/STATE/USED/Sabacus1.jpg","0"
"","1117","html-button-response","187","2.0.0","483213","p149b8g84l6","jaguar","N/A","1","Which of these items did you see earlier?","","","","","test","","novel","true","stimuli/organized/Novel pairs (tested)/n08aoven.jpg","stimuli/organized/Novel pairs (tested)/n08bpaperclip.jpg","1"
"","2364","html-button-response","188","2.0.0","485585","p149b8g84l6","jaguar","N/A","0","Which of these items did you see earlier?","","","","","test","","state","true","stimuli/organized/STATE/USED/Sgiftbag1.jpg","stimuli/organized/STATE/USED/Sgiftbag2.jpg","0"
"","1152","html-button-response","189","2.0.0","486740","p149b8g84l6","jaguar","N/A","1","Which of these items did you see earlier?","","","","","test","","novel","true","stimuli/organized/Novel pairs (tested)/n06acane.jpg","stimuli/organized/Novel pairs (tested)/n06blipstick.jpg","1"
"","1670","html-button-response","190","2.0.0","488412","p149b8g84l6","jaguar","N/A","0","Which of these items did you see earlier?","","","","","test","","novel","true","stimuli/organized/Novel pairs (tested)/n18bsnail.jpg","stimuli/organized/Novel pairs (tested)/n18apretzel.jpg","0"
"","1259","html-button-response","191","2.0.0","489673","p149b8g84l6","jaguar","N/A","0","Which of these items did you see earlier?","","","","","test","","novel","true","stimuli/organized/Novel pairs (tested)/n03bbagel.jpg","stimuli/organized/Novel pairs (tested)/n03acamel.jpg","0"
"","1761","html-button-response","192","2.0.0","491438","p149b8g84l6","jaguar","N/A","1","Which of these items did you see earlier?","","","","","test","","state","true","stimuli/organized/STATE/USED/Scontainer2.JPG","stimuli/organized/STATE/USED/Scontainer1.JPG","1"
"","1488","html-button-response","193","2.0.0","492928","p149b8g84l6","jaguar","N/A","1","Which of these items did you see earlier?","","","","","test","","state","true","stimuli/organized/STATE/USED/Spotpan2.JPG","stimuli/organized/STATE/USED/Spotpan1.JPG","1"
"","1133","html-button-response","194","2.0.0","494062","p149b8g84l6","jaguar","N/A","0","Which of these items did you see earlier?","","","","","test","","state","true","stimuli/organized/STATE/USED/Sbox2.jpg","stimuli/organized/STATE/USED/Sbox1.jpg","0"
"","1903","html-button-response","195","2.0.0","495968","p149b8g84l6","jaguar","N/A","1","Which of these items did you see earlier?","","","","","test","","exemplar","true","stimuli/organized/EXEMPLAR/USED/Ecabinet1.jpg","stimuli/organized/EXEMPLAR/USED/Ecabinet2.jpg","1"
"","1598","html-button-response","196","2.0.0","497569","p149b8g84l6","jaguar","N/A","0","Which of these items did you see earlier?","","","","","test","","state","true","stimuli/organized/STATE/USED/Sbureau2.JPG","stimuli/organized/STATE/USED/Sbureau1.JPG","0"
"","1041","html-button-response","197","2.0.0","498612","p149b8g84l6","jaguar","N/A","1","Which of these items did you see earlier?","","","","","test","","novel","true","stimuli/organized/Novel pairs (tested)/n17avendingmachine.jpg","stimuli/organized/Novel pairs (tested)/n17bweddingdress.jpg","1"
"","1027","html-button-response","198","2.0.0","499640","p149b8g84l6","jaguar","N/A","0","Which of these items did you see earlier?","","","","","test","","state","true","stimuli/organized/STATE/USED/Sdryer1.jpg","stimuli/organized/STATE/USED/Sdryer2.jpg","0"
"","1622","html-button-response","199","2.0.0","501265","p149b8g84l6","jaguar","N/A","1","Which of these items did you see earlier?","","","","","test","","state","true","stimuli/organized/STATE/USED/Sdrum1.jpg","stimuli/organized/STATE/USED/Sdrum2.jpg","1"
"","1460","html-button-response","200","2.0.0","502728","p149b8g84l6","jaguar","N/A","1","Which of these items did you see earlier?","","","","","test","","novel","true","stimuli/organized/Novel pairs (tested)/n19bhairbrush.jpg","stimuli/organized/Novel pairs (tested)/n19apickle.jpg","1"
"","4927","html-button-response","201","2.0.0","507656","p149b8g84l6","jaguar","N/A","0","Which of these items did you see earlier?","","","","","test","","state","true","stimuli/organized/STATE/USED/Sscanner2.JPG","stimuli/organized/STATE/USED/Sscanner1.JPG","0"
"","1425","html-button-response","202","2.0.0","509085","p149b8g84l6","jaguar","N/A","0","Which of these items did you see earlier?","","","","","test","","exemplar","true","stimuli/organized/EXEMPLAR/USED/Ecamera1.jpg","stimuli/organized/EXEMPLAR/USED/Ecamera2.jpg","0"
"","3196","html-button-response","203","2.0.0","512283","p149b8g84l6","jaguar","N/A","0","Which of these items did you see earlier?","","","","","test","","state","true","stimuli/organized/STATE/USED/Sgiftbox1.jpg","stimuli/organized/STATE/USED/Sgiftbox2.jpg","0"
"","1579","html-button-response","204","2.0.0","513864","p149b8g84l6","jaguar","N/A","0","Which of these items did you see earlier?","","","","","test","","state","true","stimuli/organized/STATE/USED/Scoffeemaker2.JPG","stimuli/organized/STATE/USED/Scoffeemaker1.JPG","0"
"","1125","html-button-response","205","2.0.0","514991","p149b8g84l6","jaguar","N/A","1","Which of these items did you see earlier?","","","","","test","","exemplar","true","stimuli/organized/EXEMPLAR/USED/Efeather1.jpg","stimuli/organized/EXEMPLAR/USED/Efeather2.jpg","1"
"","6975","html-button-response","206","2.0.0","521969","p149b8g84l6","jaguar","N/A","1","Which of these items did you see earlier?","","","","","test","","state","true","stimuli/organized/STATE/USED/Sbrushes2.jpg","stimuli/organized/STATE/USED/Sbrushes1.jpg","1"
"","6490","html-button-response","207","2.0.0","528464","p149b8g84l6","jaguar","N/A","0","Which of these items did you see earlier?","","","","","test","","state","false","stimuli/organized/STATE/USED/Sscissors2.JPG","stimuli/organized/STATE/USED/Sscissors1.JPG","1"
"","2762","html-button-response","208","2.0.0","531229","p149b8g84l6","jaguar","N/A","0","Which of these items did you see earlier?","","","","","test","","state","true","stimuli/organized/STATE/USED/Scookies1.JPG","stimuli/organized/STATE/USED/Scookies2.JPG","0"
"","1864","html-button-response","209","2.0.0","533096","p149b8g84l6","jaguar","N/A","1","Which of these items did you see earlier?","","","","","test","","novel","true","stimuli/organized/Novel pairs (tested)/n14bgolfball.jpg","stimuli/organized/Novel pairs (tested)/n14acigarette.jpg","1"
"","1089","html-button-response","210","2.0.0","534188","p149b8g84l6","jaguar","N/A","0","Which of these items did you see earlier?","","","","","test","","exemplar","true","stimuli/organized/EXEMPLAR/USED/Echocolatebar1.jpg","stimuli/organized/EXEMPLAR/USED/Echocolatebar2.jpg","0"
"","18026","html-button-response","211","2.0.0","552221","p149b8g84l6","jaguar","N/A","0","Which of these items did you see earlier?","","","","","test","","state","false","stimuli/organized/STATE/USED/Sdresser1.jpg","stimuli/organized/STATE/USED/Sdresser2.jpg","1"
"","2197","html-button-response","212","2.0.0","554420","p149b8g84l6","jaguar","N/A","0","Which of these items did you see earlier?","","","","","test","","state","true","stimuli/organized/STATE/USED/Spie1.JPG","stimuli/organized/STATE/USED/Spie2.JPG","0"
"","2509","html-button-response","213","2.0.0","556932","p149b8g84l6","jaguar","N/A","0","Which of these items did you see earlier?","","","","","test","","novel","true","stimuli/organized/Novel pairs (tested)/n04bbandaid.jpg","stimuli/organized/Novel pairs (tested)/n04ayarn.jpg","0"
"","7187","html-button-response","214","2.0.0","564122","p149b8g84l6","jaguar","N/A","1","Which of these items did you see earlier?","","","","","test","","exemplar","true","stimuli/organized/EXEMPLAR/USED/Eframe2.jpg","stimuli/organized/EXEMPLAR/USED/Eframe1.jpg","1"
"","2516","html-button-response","215","2.0.0","566642","p149b8g84l6","jaguar","N/A","0","Which of these items did you see earlier?","","","","","test","","exemplar","true","stimuli/organized/EXEMPLAR/USED/Ecar1.jpg","stimuli/organized/EXEMPLAR/USED/Ecar2.jpg","0"
"","2646","html-button-response","216","2.0.0","569290","p149b8g84l6","jaguar","N/A","1","Which of these items did you see earlier?","","","","","test","","exemplar","true","stimuli/organized/EXEMPLAR/USED/Ecalculator1.jpg","stimuli/organized/EXEMPLAR/USED/Ecalculator2.jpg","1"
"","3230","html-button-response","217","2.0.0","572522","p149b8g84l6","jaguar","N/A","0","Which of these items did you see earlier?","","","","","test","","novel","true","stimuli/organized/Novel pairs (tested)/n13bdustpan.jpg","stimuli/organized/Novel pairs (tested)/n13ablueberries.jpg","0"
"","1144","html-button-response","218","2.0.0","573668","p149b8g84l6","jaguar","N/A","0","Which of these items did you see earlier?","","","","","test","","state","true","stimuli/organized/STATE/USED/Sbabytoy1.JPG","stimuli/organized/STATE/USED/Sbabytoy2.JPG","0"
"","1614","html-button-response","219","2.0.0","575286","p149b8g84l6","jaguar","N/A","0","Which of these items did you see earlier?","","","","","test","","exemplar","true","stimuli/organized/EXEMPLAR/USED/Efan2.jpg","stimuli/organized/EXEMPLAR/USED/Efan1.jpg","0"
"","1349","html-button-response","220","2.0.0","576637","p149b8g84l6","jaguar","N/A","0","Which of these items did you see earlier?","","","","","test","","novel","true","stimuli/organized/Novel pairs (tested)/n02aaxe.jpg","stimuli/organized/Novel pairs (tested)/n02bsafetypin.jpg","0"
"","1130","html-button-response","221","2.0.0","577770","p149b8g84l6","jaguar","N/A","0","Which of these items did you see earlier?","","","","","test","","state","true","stimuli/organized/STATE/USED/Sapplesgreenbasket2.jpg","stimuli/organized/STATE/USED/Sapplesgreenbasket1.jpg","0"
"","1138","html-button-response","222","2.0.0","578911","p149b8g84l6","jaguar","N/A","1","Which of these items did you see earlier?","","","","","test","","exemplar","true","stimuli/organized/EXEMPLAR/USED/Edispenser1.jpg","stimuli/organized/EXEMPLAR/USED/Edispenser2.jpg","1"
"","1538","html-button-response","223","2.0.0","580450","p149b8g84l6","jaguar","N/A","0","Which of these items did you see earlier?","","","","","test","","state","true","stimuli/organized/STATE/USED/Sbelt1.jpg","stimuli/organized/STATE/USED/Sbelt2.jpg","0"
"","6179","html-button-response","224","2.0.0","586631","p149b8g84l6","jaguar","N/A","0","Which of these items did you see earlier?","","","","","test","","state","true","stimuli/organized/STATE/USED/Sfiretrucktoy1.jpg","stimuli/organized/STATE/USED/Sfiretrucktoy2.jpg","0"
"","1525","html-button-response","225","2.0.0","588157","p149b8g84l6","jaguar","N/A","0","Which of these items did you see earlier?","","","","","test","","exemplar","true","stimuli/organized/EXEMPLAR/USED/Ebread2.jpg","stimuli/organized/EXEMPLAR/USED/Ebread1.jpg","0"
"","7029","html-button-response","226","2.0.0","595188","p149b8g84l6","jaguar","N/A","1","Which of these items did you see earlier?","","","","","test","","exemplar","false","stimuli/organized/EXEMPLAR/USED/Egrapes1.jpg","stimuli/organized/EXEMPLAR/USED/Egrapes2.jpg","0"
"","3429","html-button-response","227","2.0.0","598619","p149b8g84l6","jaguar","N/A","0","Which of these items did you see earlier?","","","","","test","","state","true","stimuli/organized/STATE/USED/Slaptop2.JPG","stimuli/organized/STATE/USED/Slaptop1.JPG","0"
"","2655","html-button-response","228","2.0.0","601277","p149b8g84l6","jaguar","N/A","0","Which of these items did you see earlier?","","","","","test","","novel","true","stimuli/organized/Novel pairs (tested)/n01bcoin.jpg","stimuli/organized/Novel pairs (tested)/n01aladybug.jpg","0"
"","4998","html-button-response","229","2.0.0","606277","p149b8g84l6","jaguar","N/A","1","Which of these items did you see earlier?","","","","","test","","novel","false","stimuli/organized/Novel pairs (tested)/n16abananas.jpg","stimuli/organized/Novel pairs (tested)/n16bhammer.jpg","0"
"","2307","html-button-response","230","2.0.0","608591","p149b8g84l6","jaguar","N/A","0","Which of these items did you see earlier?","","","","","test","","state","false","stimuli/organized/STATE/USED/Sbooks2.JPG","stimuli/organized/STATE/USED/Sbooks1.JPG","1"
"","3357","html-button-response","231","2.0.0","611951","p149b8g84l6","jaguar","N/A","0","Which of these items did you see earlier?","","","","","test","","state","true","stimuli/organized/STATE/USED/Seggs2.jpg","stimuli/organized/STATE/USED/Seggs1.jpg","0"
"","2139","html-button-response","232","2.0.0","614092","p149b8g84l6","jaguar","N/A","0","Which of these items did you see earlier?","","","","","test","","novel","true","stimuli/organized/Novel pairs (tested)/n10awindmill.jpg","stimuli/organized/Novel pairs (tested)/n10bturkey.jpg","0"
"","1223","html-button-response","233","2.0.0","615317","p149b8g84l6","jaguar","N/A","1","Which of these items did you see earlier?","","","","","test","","exemplar","true","stimuli/organized/EXEMPLAR/USED/Echisel2.jpg","stimuli/organized/EXEMPLAR/USED/Echisel1.jpg","1"
"","5087","html-button-response","234","2.0.0","620407","p149b8g84l6","jaguar","N/A","1","Which of these items did you see earlier?","","","","","test","","state","true","stimuli/organized/STATE/USED/Sdishes1.JPG","stimuli/organized/STATE/USED/Sdishes2.JPG","1"
"","1937","html-button-response","235","2.0.0","622346","p149b8g84l6","jaguar","N/A","1","Which of these items did you see earlier?","","","","","test","","state","true","stimuli/organized/STATE/USED/Sphone2.JPG","stimuli/organized/STATE/USED/Sphone1.JPG","1"
"","1503","html-button-response","236","2.0.0","623851","p149b8g84l6","jaguar","N/A","1","Which of these items did you see earlier?","","","","","test","","state","true","stimuli/organized/STATE/USED/Sbreadbox1.JPG","stimuli/organized/STATE/USED/Sbreadbox2.JPG","1"
"","1348","html-button-response","237","2.0.0","625202","p149b8g84l6","jaguar","N/A","1","Which of these items did you see earlier?","","","","","test","","novel","true","stimuli/organized/Novel pairs (tested)/n09bsaddle.jpg","stimuli/organized/Novel pairs (tested)/n09apenguin.jpg","1"
"","2742","html-button-response","238","2.0.0","627946","p149b8g84l6","jaguar","N/A","0","Which of these items did you see earlier?","","","","","test","","exemplar","true","stimuli/organized/EXEMPLAR/USED/Ebracelet2.jpg","stimuli/organized/EXEMPLAR/USED/Ebracelet1.jpg","0"
"","4178","html-button-response","239","2.0.0","632125","p149b8g84l6","jaguar","N/A","0","Which of these items did you see earlier?","","","","","test","","state","true","stimuli/organized/STATE/USED/Sflask1.jpg","stimuli/organized/STATE/USED/Sflask2.jpg","0"
"","16078","html-button-response","240","2.0.0","648205","p149b8g84l6","jaguar","N/A","1","Which of these items did you see earlier?","","","","","test","","state","true","stimuli/organized/STATE/USED/Sbottles2.JPG","stimuli/organized/STATE/USED/Sbottles1.JPG","1"
"","2504","html-button-response","241","2.0.0","650712","p149b8g84l6","jaguar","N/A","1","Which of these items did you see earlier?","","","","","test","","novel","true","stimuli/organized/Novel pairs (tested)/n11bsock.jpg","stimuli/organized/Novel pairs (tested)/n11abatteries.jpg","1"
"","1419","html-button-response","242","2.0.0","652133","p149b8g84l6","jaguar","N/A","1","Which of these items did you see earlier?","","","","","test","","novel","true","stimuli/organized/Novel pairs (tested)/n12atelescope.jpg","stimuli/organized/Novel pairs (tested)/n12bwatch.jpg","1"
"","1580","html-button-response","243","2.0.0","653716","p149b8g84l6","jaguar","N/A","0","Which of these items did you see earlier?","","","","","test","","novel","true","stimuli/organized/Novel pairs (tested)/n20acarseat.jpg","stimuli/organized/Novel pairs (tested)/n20bshelf.jpg","0"
"","9206","survey-html-form","244","2.0.0","662925","p149b8g84l6","jaguar","N/A","{""age"":""20"",""gender"":""female"",""memory_experiment_experience"":""yes""}","","","","","","","","","","","",""
"","27920","survey-text","245","2.0.0","690854","p149b8g84l6","jaguar","N/A","{""task_guess"":""Ability to distinguish between details/subtle changes when exposed to a large amount of stimuli.""}","","","","","","","","","","","",""
"","5168","survey-text","246","2.0.0","696027","p149b8g84l6","jaguar","N/A","{""technical_issues_question"":""N/A""}","","","","","","","","","","","",""
