"success","rt","trial_type","trial_index","plugin_version","time_elapsed","random_id","participant","technical_issues","response","stimulus","timeout","failed_images","failed_audio","failed_video","trial_phase","is_repeat","test_type","correct","old_image","new_image","correct_position"
"true","1075","fullscreen","0","null","2080","p14k1pv55tw","wallaby","no","","","","","","","","","","","","",""
"","9348","survey-text","1","2.0.0","11433","p14k1pv55tw","wallaby","no","{""participant_id"":""wallaby""}","","","","","","","","","","","",""
"","22103","html-keyboard-response","2","2.0.0","33537","p14k1pv55tw","wallaby","no","n","
      <p>In this experiment, a series of objects will be displayed.</p>
      <p>Try to memorize as much as possible about the objects.</p>
      <p>If the image is a <strong> repeat</strong>, press the SPACEBAR.</p>
      <p>Press any key to begin.</p>
    ","","","","","","","","","","",""
"true","","preload","3","2.0.0","33868","p14k1pv55tw","wallaby","no","","","false","[]","[]","[]","","","","","","",""
"","null","html-keyboard-response","4","2.0.0","34870","p14k1pv55tw","wallaby","no","null","<div style=""font-size:60px;"">+</div>","","","","","","","","","","",""
"","null","image-keyboard-response","5","2.0.0","37877","p14k1pv55tw","wallaby","no","null","stimuli/organized/EXEMPLAR/USED/Efan2.jpg","","","","","memory","false","exemplar","true","","",""
"","null","html-keyboard-response","6","2.0.0","38880","p14k1pv55tw","wallaby","no","null","<div style=""font-size:60px; color:black;"">+</div>","","","","","","","","","","",""
"","null","image-keyboard-response","7","2.0.0","41884","p14k1pv55tw","wallaby","no","null","stimuli/organized/Novel pairs (tested)/n04ayarn.jpg","","","","","memory","false","novel","true","","",""
"","null","html-keyboard-response","8","2.0.0","42888","p14k1pv55tw","wallaby","no","null","<div style=""font-size:60px; color:black;"">+</div>","","","","","","","","","","",""
"","null","image-keyboard-response","9","2.0.0","45892","p14k1pv55tw","wallaby","no","null","stimuli/organized/Novel pairs (tested)/n03bbagel.jpg","","","","","memory","false","novel","true","","",""
"","null","html-keyboard-response","10","2.0.0","46895","p14k1pv55tw","wallaby","no","null","<div style=""font-size:60px; color:black;"">+</div>","","","","","","","","","","",""
"","null","image-keyboard-response","11","2.0.0","49898","p14k1pv55tw","wallaby","no","null","stimuli/organized/STATE/USED/Sdishes1.JPG","","","","","memory","false","state","true","","",""
"","null","html-keyboard-response","12","2.0.0","50900","p14k1pv55tw","wallaby","no","null","<div style=""font-size:60px; color:black;"">+</div>","","","","","","","","","","",""
"","null","image-keyboard-response","13","2.0.0","53903","p14k1pv55tw","wallaby","no","null","stimuli/organized/STATE/USED/Slaptop1.JPG","","","","","memory","false","state","true","","",""
"","null","html-keyboard-response","14","2.0.0","54905","p14k1pv55tw","wallaby","no","null","<div style=""font-size:60px; color:black;"">+</div>","","","","","","","","","","",""
"","null","image-keyboard-response","15","2.0.0","57908","p14k1pv55tw","wallaby","no","null","stimuli/organized/EXEMPLAR/USED/Ebicycle1.jpg","","","","","memory","false","exemplar","true","","",""
"","null","html-keyboard-response","16","2.0.0","58911","p14k1pv55tw","wallaby","no","null","<div style=""font-size:60px; color:black;"">+</div>","","","","","","","","","","",""
"","null","image-keyboard-response","17","2.0.0","61915","p14k1pv55tw","wallaby","no","null","stimuli/organized/EXEMPLAR/USED/Ecamera1.jpg","","","","","memory","false","exemplar","true","","",""
"","null","html-keyboard-response","18","2.0.0","62918","p14k1pv55tw","wallaby","no","null","<div style=""font-size:60px; color:black;"">+</div>","","","","","","","","","","",""
"","null","image-keyboard-response","19","2.0.0","65922","p14k1pv55tw","wallaby","no","null","stimuli/organized/STATE/USED/Sdresser1.jpg","","","","","memory","false","state","true","","",""
"","null","html-keyboard-response","20","2.0.0","66925","p14k1pv55tw","wallaby","no","null","<div style=""font-size:60px; color:black;"">+</div>","","","","","","","","","","",""
"","null","image-keyboard-response","21","2.0.0","69928","p14k1pv55tw","wallaby","no","null","stimuli/organized/STATE/USED/Sscissors2.JPG","","","","","memory","false","state","true","","",""
"","null","html-keyboard-response","22","2.0.0","70930","p14k1pv55tw","wallaby","no","null","<div style=""font-size:60px; color:black;"">+</div>","","","","","","","","","","",""
"","null","image-keyboard-response","23","2.0.0","73934","p14k1pv55tw","wallaby","no","null","stimuli/organized/STATE/USED/Scoffeemaker2.JPG","","","","","memory","false","state","true","","",""
"","null","html-keyboard-response","24","2.0.0","74937","p14k1pv55tw","wallaby","no","null","<div style=""font-size:60px; color:black;"">+</div>","","","","","","","","","","",""
"","null","image-keyboard-response","25","2.0.0","77940","p14k1pv55tw","wallaby","no","null","stimuli/organized/EXEMPLAR/USED/Egoggles2.jpg","","","","","memory","false","exemplar","true","","",""
"","null","html-keyboard-response","26","2.0.0","78943","p14k1pv55tw","wallaby","no","null","<div style=""font-size:60px; color:black;"">+</div>","","","","","","","","","","",""
"","null","image-keyboard-response","27","2.0.0","81947","p14k1pv55tw","wallaby","no","null","stimuli/organized/Novel pairs (tested)/n08aoven.jpg","","","","","memory","false","novel","true","","",""
"","null","html-keyboard-response","28","2.0.0","82949","p14k1pv55tw","wallaby","no","null","<div style=""font-size:60px; color:black;"">+</div>","","","","","","","","","","",""
"","null","image-keyboard-response","29","2.0.0","85953","p14k1pv55tw","wallaby","no","null","stimuli/organized/Novel pairs (tested)/n06acane.jpg","","","","","memory","false","novel","true","","",""
"","null","html-keyboard-response","30","2.0.0","86956","p14k1pv55tw","wallaby","no","null","<div style=""font-size:60px; color:black;"">+</div>","","","","","","","","","","",""
"","null","image-keyboard-response","31","2.0.0","89959","p14k1pv55tw","wallaby","no","null","stimuli/organized/EXEMPLAR/USED/Eframe1.jpg","","","","","memory","false","exemplar","true","","",""
"","null","html-keyboard-response","32","2.0.0","90962","p14k1pv55tw","wallaby","no","null","<div style=""font-size:60px; color:black;"">+</div>","","","","","","","","","","",""
"","null","image-keyboard-response","33","2.0.0","93965","p14k1pv55tw","wallaby","no","null","stimuli/organized/STATE/USED/Scookies2.JPG","","","","","memory","false","state","true","","",""
"","null","html-keyboard-response","34","2.0.0","94967","p14k1pv55tw","wallaby","no","null","<div style=""font-size:60px; color:black;"">+</div>","","","","","","","","","","",""
"","null","image-keyboard-response","35","2.0.0","97971","p14k1pv55tw","wallaby","no","null","stimuli/organized/STATE/USED/Sapplesgreenbasket1.jpg","","","","","memory","false","state","true","","",""
"","null","html-keyboard-response","36","2.0.0","98974","p14k1pv55tw","wallaby","no","null","<div style=""font-size:60px; color:black;"">+</div>","","","","","","","","","","",""
"","null","image-keyboard-response","37","2.0.0","101977","p14k1pv55tw","wallaby","no","null","stimuli/organized/Novel pairs (tested)/n13bdustpan.jpg","","","","","memory","false","novel","true","","",""
"","null","html-keyboard-response","38","2.0.0","102979","p14k1pv55tw","wallaby","no","null","<div style=""font-size:60px; color:black;"">+</div>","","","","","","","","","","",""
"","null","image-keyboard-response","39","2.0.0","105983","p14k1pv55tw","wallaby","no","null","stimuli/organized/STATE/USED/Sabacus1.jpg","","","","","memory","false","state","true","","",""
"","null","html-keyboard-response","40","2.0.0","106986","p14k1pv55tw","wallaby","no","null","<div style=""font-size:60px; color:black;"">+</div>","","","","","","","","","","",""
"","null","image-keyboard-response","41","2.0.0","109989","p14k1pv55tw","wallaby","no","null","stimuli/organized/STATE/USED/Sbelt2.jpg","","","","","memory","false","state","true","","",""
"","null","html-keyboard-response","42","2.0.0","110992","p14k1pv55tw","wallaby","no","null","<div style=""font-size:60px; color:black;"">+</div>","","","","","","","","","","",""
"","null","image-keyboard-response","43","2.0.0","113995","p14k1pv55tw","wallaby","no","null","stimuli/organized/EXEMPLAR/USED/Echocolatebar1.jpg","","","","","memory","false","exemplar","true","","",""
"","null","html-keyboard-response","44","2.0.0","114998","p14k1pv55tw","wallaby","no","null","<div style=""font-size:60px; color:black;"">+</div>","","","","","","","","","","",""
"","null","image-keyboard-response","45","2.0.0","118002","p14k1pv55tw","wallaby","no","null","stimuli/organized/STATE/USED/Sdie2.jpg","","","","","memory","false","state","true","","",""
"","null","html-keyboard-response","46","2.0.0","119005","p14k1pv55tw","wallaby","no","null","<div style=""font-size:60px; color:black;"">+</div>","","","","","","","","","","",""
"","null","image-keyboard-response","47","2.0.0","122009","p14k1pv55tw","wallaby","no","null","stimuli/organized/STATE/USED/Sfiretrucktoy2.jpg","","","","","memory","false","state","true","","",""
"","null","html-keyboard-response","48","2.0.0","123011","p14k1pv55tw","wallaby","no","null","<div style=""font-size:60px; color:black;"">+</div>","","","","","","","","","","",""
"","null","image-keyboard-response","49","2.0.0","126015","p14k1pv55tw","wallaby","no","null","stimuli/organized/EXEMPLAR/USED/Echisel2.jpg","","","","","memory","false","exemplar","true","","",""
"","null","html-keyboard-response","50","2.0.0","127018","p14k1pv55tw","wallaby","no","null","<div style=""font-size:60px; color:black;"">+</div>","","","","","","","","","","",""
"","null","image-keyboard-response","51","2.0.0","130021","p14k1pv55tw","wallaby","no","null","stimuli/organized/STATE/USED/Sgrinder1.jpg","","","","","memory","false","state","true","","",""
"","null","html-keyboard-response","52","2.0.0","131024","p14k1pv55tw","wallaby","no","null","<div style=""font-size:60px; color:black;"">+</div>","","","","","","","","","","",""
"","null","image-keyboard-response","53","2.0.0","134028","p14k1pv55tw","wallaby","no","null","stimuli/organized/Novel pairs (tested)/n05abarrel.jpg","","","","","memory","false","novel","true","","",""
"","null","html-keyboard-response","54","2.0.0","135030","p14k1pv55tw","wallaby","no","null","<div style=""font-size:60px; color:black;"">+</div>","","","","","","","","","","",""
"","null","image-keyboard-response","55","2.0.0","138034","p14k1pv55tw","wallaby","no","null","stimuli/organized/Novel pairs (tested)/n02bsafetypin.jpg","","","","","memory","false","novel","true","","",""
"","null","html-keyboard-response","56","2.0.0","139036","p14k1pv55tw","wallaby","no","null","<div style=""font-size:60px; color:black;"">+</div>","","","","","","","","","","",""
"","null","image-keyboard-response","57","2.0.0","142039","p14k1pv55tw","wallaby","no","null","stimuli/organized/EXEMPLAR/USED/Ecabinet2.jpg","","","","","memory","false","exemplar","true","","",""
"","null","html-keyboard-response","58","2.0.0","143042","p14k1pv55tw","wallaby","no","null","<div style=""font-size:60px; color:black;"">+</div>","","","","","","","","","","",""
"","null","image-keyboard-response","59","2.0.0","146046","p14k1pv55tw","wallaby","no","null","stimuli/organized/STATE/USED/Sscanner2.JPG","","","","","memory","false","state","true","","",""
"","null","html-keyboard-response","60","2.0.0","147049","p14k1pv55tw","wallaby","no","null","<div style=""font-size:60px; color:black;"">+</div>","","","","","","","","","","",""
"","null","image-keyboard-response","61","2.0.0","150053","p14k1pv55tw","wallaby","no","null","stimuli/organized/EXEMPLAR/USED/Econe1.jpg","","","","","memory","false","exemplar","true","","",""
"","null","html-keyboard-response","62","2.0.0","151055","p14k1pv55tw","wallaby","no","null","<div style=""font-size:60px; color:black;"">+</div>","","","","","","","","","","",""
"","null","image-keyboard-response","63","2.0.0","154059","p14k1pv55tw","wallaby","no","null","stimuli/organized/Novel pairs (tested)/n07apotato.jpg","","","","","memory","false","novel","true","","",""
"","null","html-keyboard-response","64","2.0.0","155061","p14k1pv55tw","wallaby","no","null","<div style=""font-size:60px; color:black;"">+</div>","","","","","","","","","","",""
"","null","image-keyboard-response","65","2.0.0","158065","p14k1pv55tw","wallaby","no","null","stimuli/organized/STATE/USED/Sdonut1.jpg","","","","","memory","false","state","true","","",""
"","null","html-keyboard-response","66","2.0.0","159068","p14k1pv55tw","wallaby","no","null","<div style=""font-size:60px; color:black;"">+</div>","","","","","","","","","","",""
"","null","image-keyboard-response","67","2.0.0","162071","p14k1pv55tw","wallaby","no","null","stimuli/organized/STATE/USED/Spie1.JPG","","","","","memory","false","state","true","","",""
"","null","html-keyboard-response","68","2.0.0","163073","p14k1pv55tw","wallaby","no","null","<div style=""font-size:60px; color:black;"">+</div>","","","","","","","","","","",""
"","null","image-keyboard-response","69","2.0.0","166077","p14k1pv55tw","wallaby","no","null","stimuli/organized/STATE/USED/Scontainer2.JPG","","","","","memory","false","state","true","","",""
"","null","html-keyboard-response","70","2.0.0","167080","p14k1pv55tw","wallaby","no","null","<div style=""font-size:60px; color:black;"">+</div>","","","","","","","","","","",""
"","null","image-keyboard-response","71","2.0.0","170084","p14k1pv55tw","wallaby","no","null","stimuli/organized/STATE/USED/Sjuiceglass2.JPG","","","","","memory","false","state","true","","",""
"","null","html-keyboard-response","72","2.0.0","171086","p14k1pv55tw","wallaby","no","null","<div style=""font-size:60px; color:black;"">+</div>","","","","","","","","","","",""
"","null","image-keyboard-response","73","2.0.0","174088","p14k1pv55tw","wallaby","no","null","stimuli/organized/EXEMPLAR/USED/Ecar2.jpg","","","","","memory","false","exemplar","true","","",""
"","null","html-keyboard-response","74","2.0.0","175091","p14k1pv55tw","wallaby","no","null","<div style=""font-size:60px; color:black;"">+</div>","","","","","","","","","","",""
"","null","image-keyboard-response","75","2.0.0","178095","p14k1pv55tw","wallaby","no","null","stimuli/organized/EXEMPLAR/USED/Ebracelet2.jpg","","","","","memory","false","exemplar","true","","",""
"","null","html-keyboard-response","76","2.0.0","179098","p14k1pv55tw","wallaby","no","null","<div style=""font-size:60px; color:black;"">+</div>","","","","","","","","","","",""
"","null","image-keyboard-response","77","2.0.0","182101","p14k1pv55tw","wallaby","no","null","stimuli/organized/STATE/USED/Sbrushes2.jpg","","","","","memory","false","state","true","","",""
"","null","html-keyboard-response","78","2.0.0","183104","p14k1pv55tw","wallaby","no","null","<div style=""font-size:60px; color:black;"">+</div>","","","","","","","","","","",""
"","null","image-keyboard-response","79","2.0.0","186107","p14k1pv55tw","wallaby","no","null","stimuli/organized/STATE/USED/Sbabytoy1.JPG","","","","","memory","false","state","true","","",""
"","null","html-keyboard-response","80","2.0.0","187110","p14k1pv55tw","wallaby","no","null","<div style=""font-size:60px; color:black;"">+</div>","","","","","","","","","","",""
"","null","image-keyboard-response","81","2.0.0","190113","p14k1pv55tw","wallaby","no","null","stimuli/organized/EXEMPLAR/USED/Ebread1.jpg","","","","","memory","false","exemplar","true","","",""
"","null","html-keyboard-response","82","2.0.0","191116","p14k1pv55tw","wallaby","no","null","<div style=""font-size:60px; color:black;"">+</div>","","","","","","","","","","",""
"","null","image-keyboard-response","83","2.0.0","194119","p14k1pv55tw","wallaby","no","null","stimuli/organized/STATE/USED/Sbriefcase2.jpg","","","","","memory","false","state","true","","",""
"","null","html-keyboard-response","84","2.0.0","195122","p14k1pv55tw","wallaby","no","null","<div style=""font-size:60px; color:black;"">+</div>","","","","","","","","","","",""
"","null","image-keyboard-response","85","2.0.0","198125","p14k1pv55tw","wallaby","no","null","stimuli/organized/STATE/USED/Sphone1.JPG","","","","","memory","false","state","true","","",""
"","null","html-keyboard-response","86","2.0.0","199128","p14k1pv55tw","wallaby","no","null","<div style=""font-size:60px; color:black;"">+</div>","","","","","","","","","","",""
"","null","image-keyboard-response","87","2.0.0","202132","p14k1pv55tw","wallaby","no","null","stimuli/organized/EXEMPLAR/USED/Ebasket2.jpg","","","","","memory","false","exemplar","true","","",""
"","null","html-keyboard-response","88","2.0.0","203134","p14k1pv55tw","wallaby","no","null","<div style=""font-size:60px; color:black;"">+</div>","","","","","","","","","","",""
"","null","image-keyboard-response","89","2.0.0","206137","p14k1pv55tw","wallaby","no","null","stimuli/organized/Novel pairs (tested)/n19apickle.jpg","","","","","memory","false","novel","true","","",""
"","null","html-keyboard-response","90","2.0.0","207140","p14k1pv55tw","wallaby","no","null","<div style=""font-size:60px; color:black;"">+</div>","","","","","","","","","","",""
"","null","image-keyboard-response","91","2.0.0","210143","p14k1pv55tw","wallaby","no","null","stimuli/organized/Novel pairs (tested)/n16bhammer.jpg","","","","","memory","false","novel","true","","",""
"","null","html-keyboard-response","92","2.0.0","211146","p14k1pv55tw","wallaby","no","null","<div style=""font-size:60px; color:black;"">+</div>","","","","","","","","","","",""
"","null","image-keyboard-response","93","2.0.0","214150","p14k1pv55tw","wallaby","no","null","stimuli/organized/STATE/USED/Sdrum2.jpg","","","","","memory","false","state","true","","",""
"","null","html-keyboard-response","94","2.0.0","215153","p14k1pv55tw","wallaby","no","null","<div style=""font-size:60px; color:black;"">+</div>","","","","","","","","","","",""
"","null","image-keyboard-response","95","2.0.0","218155","p14k1pv55tw","wallaby","no","null","stimuli/organized/EXEMPLAR/USED/Ebell2.jpg","","","","","memory","false","exemplar","true","","",""
"","null","html-keyboard-response","96","2.0.0","219158","p14k1pv55tw","wallaby","no","null","<div style=""font-size:60px; color:black;"">+</div>","","","","","","","","","","",""
"","null","image-keyboard-response","97","2.0.0","222161","p14k1pv55tw","wallaby","no","null","stimuli/organized/EXEMPLAR/USED/Edispenser1.jpg","","","","","memory","false","exemplar","true","","",""
"","null","html-keyboard-response","98","2.0.0","223164","p14k1pv55tw","wallaby","no","null","<div style=""font-size:60px; color:black;"">+</div>","","","","","","","","","","",""
"","null","image-keyboard-response","99","2.0.0","226167","p14k1pv55tw","wallaby","no","null","stimuli/organized/Novel pairs (tested)/n01aladybug.jpg","","","","","memory","false","novel","true","","",""
"","null","html-keyboard-response","100","2.0.0","227170","p14k1pv55tw","wallaby","no","null","<div style=""font-size:60px; color:black;"">+</div>","","","","","","","","","","",""
"","null","image-keyboard-response","101","2.0.0","230174","p14k1pv55tw","wallaby","no","null","stimuli/organized/EXEMPLAR/USED/Efeather2.jpg","","","","","memory","false","exemplar","true","","",""
"","null","html-keyboard-response","102","2.0.0","231176","p14k1pv55tw","wallaby","no","null","<div style=""font-size:60px; color:black;"">+</div>","","","","","","","","","","",""
"","null","image-keyboard-response","103","2.0.0","234180","p14k1pv55tw","wallaby","no","null","stimuli/organized/STATE/USED/Seggs1.jpg","","","","","memory","false","state","true","","",""
"","null","html-keyboard-response","104","2.0.0","235182","p14k1pv55tw","wallaby","no","null","<div style=""font-size:60px; color:black;"">+</div>","","","","","","","","","","",""
"","null","image-keyboard-response","105","2.0.0","238185","p14k1pv55tw","wallaby","no","null","stimuli/organized/Novel pairs (tested)/n09apenguin.jpg","","","","","memory","false","novel","true","","",""
"","null","html-keyboard-response","106","2.0.0","239188","p14k1pv55tw","wallaby","no","null","<div style=""font-size:60px; color:black;"">+</div>","","","","","","","","","","",""
"","null","image-keyboard-response","107","2.0.0","242192","p14k1pv55tw","wallaby","no","null","stimuli/organized/Novel pairs (tested)/n10awindmill.jpg","","","","","memory","false","novel","true","","",""
"","null","html-keyboard-response","108","2.0.0","243195","p14k1pv55tw","wallaby","no","null","<div style=""font-size:60px; color:black;"">+</div>","","","","","","","","","","",""
"","null","image-keyboard-response","109","2.0.0","246198","p14k1pv55tw","wallaby","no","null","stimuli/organized/EXEMPLAR/USED/Egrapes1.jpg","","","","","memory","false","exemplar","true","","",""
"","null","html-keyboard-response","110","2.0.0","247200","p14k1pv55tw","wallaby","no","null","<div style=""font-size:60px; color:black;"">+</div>","","","","","","","","","","",""
"","null","image-keyboard-response","111","2.0.0","250204","p14k1pv55tw","wallaby","no","null","stimuli/organized/Novel pairs (tested)/n20acarseat.jpg","","","","","memory","false","novel","true","","",""
"","null","html-keyboard-response","112","2.0.0","251206","p14k1pv55tw","wallaby","no","null","<div style=""font-size:60px; color:black;"">+</div>","","","","","","","","","","",""
"","null","image-keyboard-response","113","2.0.0","254210","p14k1pv55tw","wallaby","no","null","stimuli/organized/Novel pairs (tested)/n17bweddingdress.jpg","","","","","memory","false","novel","true","","",""
"","null","html-keyboard-response","114","2.0.0","255213","p14k1pv55tw","wallaby","no","null","<div style=""font-size:60px; color:black;"">+</div>","","","","","","","","","","",""
"","null","image-keyboard-response","115","2.0.0","258216","p14k1pv55tw","wallaby","no","null","stimuli/organized/EXEMPLAR/USED/Ecalculator2.jpg","","","","","memory","false","exemplar","true","","",""
"","null","html-keyboard-response","116","2.0.0","259218","p14k1pv55tw","wallaby","no","null","<div style=""font-size:60px; color:black;"">+</div>","","","","","","","","","","",""
"","1937","image-keyboard-response","117","2.0.0","262222","p14k1pv55tw","wallaby","no"," ","stimuli/organized/EXEMPLAR/USED/Ecar2.jpg","","","","","memory","true","exemplar","true","","",""
"","null","html-keyboard-response","118","2.0.0","263224","p14k1pv55tw","wallaby","no","null","<div style=""font-size:60px; color:green;"">+</div>","","","","","","","","","","",""
"","null","image-keyboard-response","119","2.0.0","266227","p14k1pv55tw","wallaby","no","null","stimuli/organized/STATE/USED/Scrayons1.jpg","","","","","memory","false","state","true","","",""
"","null","html-keyboard-response","120","2.0.0","267230","p14k1pv55tw","wallaby","no","null","<div style=""font-size:60px; color:black;"">+</div>","","","","","","","","","","",""
"","null","image-keyboard-response","121","2.0.0","270233","p14k1pv55tw","wallaby","no","null","stimuli/organized/STATE/USED/Sgiftbox2.jpg","","","","","memory","false","state","true","","",""
"","null","html-keyboard-response","122","2.0.0","271236","p14k1pv55tw","wallaby","no","null","<div style=""font-size:60px; color:black;"">+</div>","","","","","","","","","","",""
"","null","image-keyboard-response","123","2.0.0","274239","p14k1pv55tw","wallaby","no","null","stimuli/organized/STATE/USED/Spotpan1.JPG","","","","","memory","false","state","true","","",""
"","null","html-keyboard-response","124","2.0.0","275242","p14k1pv55tw","wallaby","no","null","<div style=""font-size:60px; color:black;"">+</div>","","","","","","","","","","",""
"","null","image-keyboard-response","125","2.0.0","278245","p14k1pv55tw","wallaby","no","null","stimuli/organized/EXEMPLAR/USED/Eglobe1.jpg","","","","","memory","false","exemplar","true","","",""
"","null","html-keyboard-response","126","2.0.0","279248","p14k1pv55tw","wallaby","no","null","<div style=""font-size:60px; color:black;"">+</div>","","","","","","","","","","",""
"","748","image-keyboard-response","127","2.0.0","282251","p14k1pv55tw","wallaby","no"," ","stimuli/organized/Novel pairs (tested)/n19apickle.jpg","","","","","memory","true","novel","true","","",""
"","null","html-keyboard-response","128","2.0.0","283254","p14k1pv55tw","wallaby","no","null","<div style=""font-size:60px; color:green;"">+</div>","","","","","","","","","","",""
"","null","image-keyboard-response","129","2.0.0","286258","p14k1pv55tw","wallaby","no","null","stimuli/organized/Novel pairs (tested)/n15aspiderweb.jpg","","","","","memory","false","novel","true","","",""
"","null","html-keyboard-response","130","2.0.0","287261","p14k1pv55tw","wallaby","no","null","<div style=""font-size:60px; color:black;"">+</div>","","","","","","","","","","",""
"","null","image-keyboard-response","131","2.0.0","290264","p14k1pv55tw","wallaby","no","null","stimuli/organized/STATE/USED/Sbreadbox1.JPG","","","","","memory","false","state","true","","",""
"","null","html-keyboard-response","132","2.0.0","291267","p14k1pv55tw","wallaby","no","null","<div style=""font-size:60px; color:black;"">+</div>","","","","","","","","","","",""
"","754","image-keyboard-response","133","2.0.0","294271","p14k1pv55tw","wallaby","no"," ","stimuli/organized/STATE/USED/Slaptop1.JPG","","","","","memory","true","state","true","","",""
"","null","html-keyboard-response","134","2.0.0","295274","p14k1pv55tw","wallaby","no","null","<div style=""font-size:60px; color:green;"">+</div>","","","","","","","","","","",""
"","null","image-keyboard-response","135","2.0.0","298277","p14k1pv55tw","wallaby","no","null","stimuli/organized/Novel pairs (tested)/n11bsock.jpg","","","","","memory","false","novel","true","","",""
"","null","html-keyboard-response","136","2.0.0","299280","p14k1pv55tw","wallaby","no","null","<div style=""font-size:60px; color:black;"">+</div>","","","","","","","","","","",""
"","null","image-keyboard-response","137","2.0.0","302283","p14k1pv55tw","wallaby","no","null","stimuli/organized/STATE/USED/Sdryer2.jpg","","","","","memory","false","state","true","","",""
"","null","html-keyboard-response","138","2.0.0","303286","p14k1pv55tw","wallaby","no","null","<div style=""font-size:60px; color:black;"">+</div>","","","","","","","","","","",""
"","null","image-keyboard-response","139","2.0.0","306289","p14k1pv55tw","wallaby","no","null","stimuli/organized/STATE/USED/Sbottles2.JPG","","","","","memory","false","state","true","","",""
"","null","html-keyboard-response","140","2.0.0","307292","p14k1pv55tw","wallaby","no","null","<div style=""font-size:60px; color:black;"">+</div>","","","","","","","","","","",""
"","null","image-keyboard-response","141","2.0.0","310296","p14k1pv55tw","wallaby","no","null","stimuli/organized/STATE/USED/Schinesefoodbox2.jpg","","","","","memory","false","state","true","","",""
"","null","html-keyboard-response","142","2.0.0","311299","p14k1pv55tw","wallaby","no","null","<div style=""font-size:60px; color:black;"">+</div>","","","","","","","","","","",""
"","null","image-keyboard-response","143","2.0.0","314303","p14k1pv55tw","wallaby","no","null","stimuli/organized/STATE/USED/Sbooks2.JPG","","","","","memory","false","state","true","","",""
"","null","html-keyboard-response","144","2.0.0","315305","p14k1pv55tw","wallaby","no","null","<div style=""font-size:60px; color:black;"">+</div>","","","","","","","","","","",""
"","null","image-keyboard-response","145","2.0.0","318309","p14k1pv55tw","wallaby","no","null","stimuli/organized/STATE/USED/Sflask2.jpg","","","","","memory","false","state","true","","",""
"","null","html-keyboard-response","146","2.0.0","319312","p14k1pv55tw","wallaby","no","null","<div style=""font-size:60px; color:black;"">+</div>","","","","","","","","","","",""
"","null","image-keyboard-response","147","2.0.0","322315","p14k1pv55tw","wallaby","no","null","stimuli/organized/EXEMPLAR/USED/Egame1.jpg","","","","","memory","false","exemplar","true","","",""
"","null","html-keyboard-response","148","2.0.0","323319","p14k1pv55tw","wallaby","no","null","<div style=""font-size:60px; color:black;"">+</div>","","","","","","","","","","",""
"","null","image-keyboard-response","149","2.0.0","326322","p14k1pv55tw","wallaby","no","null","stimuli/organized/STATE/USED/Shairbrush1.jpg","","","","","memory","false","state","true","","",""
"","null","html-keyboard-response","150","2.0.0","327325","p14k1pv55tw","wallaby","no","null","<div style=""font-size:60px; color:black;"">+</div>","","","","","","","","","","",""
"","null","image-keyboard-response","151","2.0.0","330329","p14k1pv55tw","wallaby","no","null","stimuli/organized/STATE/USED/Sgiftbag2.jpg","","","","","memory","false","state","true","","",""
"","null","html-keyboard-response","152","2.0.0","331331","p14k1pv55tw","wallaby","no","null","<div style=""font-size:60px; color:black;"">+</div>","","","","","","","","","","",""
"","null","image-keyboard-response","153","2.0.0","334334","p14k1pv55tw","wallaby","no","null","stimuli/organized/STATE/USED/Sbureau2.JPG","","","","","memory","false","state","true","","",""
"","null","html-keyboard-response","154","2.0.0","335336","p14k1pv55tw","wallaby","no","null","<div style=""font-size:60px; color:black;"">+</div>","","","","","","","","","","",""
"","714","image-keyboard-response","155","2.0.0","338340","p14k1pv55tw","wallaby","no"," ","stimuli/organized/Novel pairs (tested)/n06acane.jpg","","","","","memory","true","novel","true","","",""
"","null","html-keyboard-response","156","2.0.0","339342","p14k1pv55tw","wallaby","no","null","<div style=""font-size:60px; color:green;"">+</div>","","","","","","","","","","",""
"","null","image-keyboard-response","157","2.0.0","342345","p14k1pv55tw","wallaby","no","null","stimuli/organized/STATE/USED/Sbox2.jpg","","","","","memory","false","state","true","","",""
"","null","html-keyboard-response","158","2.0.0","343348","p14k1pv55tw","wallaby","no","null","<div style=""font-size:60px; color:black;"">+</div>","","","","","","","","","","",""
"","null","image-keyboard-response","159","2.0.0","346352","p14k1pv55tw","wallaby","no","null","stimuli/organized/Novel pairs (tested)/n12bwatch.jpg","","","","","memory","false","novel","true","","",""
"","null","html-keyboard-response","160","2.0.0","347355","p14k1pv55tw","wallaby","no","null","<div style=""font-size:60px; color:black;"">+</div>","","","","","","","","","","",""
"","null","image-keyboard-response","161","2.0.0","350357","p14k1pv55tw","wallaby","no","null","stimuli/organized/Novel pairs (tested)/n18apretzel.jpg","","","","","memory","false","novel","true","","",""
"","null","html-keyboard-response","162","2.0.0","351360","p14k1pv55tw","wallaby","no","null","<div style=""font-size:60px; color:black;"">+</div>","","","","","","","","","","",""
"","null","image-keyboard-response","163","2.0.0","354364","p14k1pv55tw","wallaby","no","null","stimuli/organized/Novel pairs (tested)/n14acigarette.jpg","","","","","memory","false","novel","true","","",""
"","null","html-keyboard-response","164","2.0.0","355366","p14k1pv55tw","wallaby","no","null","<div style=""font-size:60px; color:black;"">+</div>","","","","","","","","","","",""
"","808","image-keyboard-response","165","2.0.0","358369","p14k1pv55tw","wallaby","no"," ","stimuli/organized/STATE/USED/Sbureau2.JPG","","","","","memory","true","state","true","","",""
"","4692","html-button-response","166","2.0.0","363064","p14k1pv55tw","wallaby","no","0","<p>You have completed the study phase.</p><p>Take a short break. Press the button below when you are ready to continue.</p>","","","","","","","","","","",""
"","19255","html-keyboard-response","167","2.0.0","382319","p14k1pv55tw","wallaby","no"," ","<p>You will now be shown pairs of images.</p><p>Select the image you remember seeing during the study phase.</p><p>Focus on accuracy, not speed.</p><p>Press any key to begin.</p>","","","","","","","","","","",""
"","4724","html-button-response","168","2.0.0","387045","p14k1pv55tw","wallaby","no","0","Which of these items did you see earlier?","","","","","test","","exemplar","false","stimuli/organized/EXEMPLAR/USED/Ebracelet2.jpg","stimuli/organized/EXEMPLAR/USED/Ebracelet1.jpg","1"
"","2882","html-button-response","169","2.0.0","389929","p14k1pv55tw","wallaby","no","1","Which of these items did you see earlier?","","","","","test","","state","true","stimuli/organized/STATE/USED/Sbreadbox1.JPG","stimuli/organized/STATE/USED/Sbreadbox2.JPG","1"
"","1915","html-button-response","170","2.0.0","391845","p14k1pv55tw","wallaby","no","1","Which of these items did you see earlier?","","","","","test","","state","true","stimuli/organized/STATE/USED/Scoffeemaker2.JPG","stimuli/organized/STATE/USED/Scoffeemaker1.JPG","1"
"","1332","html-button-response","171","2.0.0","393179","p14k1pv55tw","wallaby","no","1","Which of these items did you see earlier?","","","","","test","","novel","true","stimuli/organized/Novel pairs (tested)/n02bsafetypin.jpg","stimuli/organized/Novel pairs (tested)/n02aaxe.jpg","1"
"","3267","html-button-response","172","2.0.0","396448","p14k1pv55tw","wallaby","no","1","Which of these items did you see earlier?","","","","","test","","state","true","stimuli/organized/STATE/USED/Sphone1.JPG","stimuli/organized/STATE/USED/Sphone2.JPG","1"
"","1248","html-button-response","173","2.0.0","397697","p14k1pv55tw","wallaby","no","0","Which of these items did you see earlier?","","","","","test","","exemplar","true","stimuli/organized/EXEMPLAR/USED/Ecalculator2.jpg","stimuli/organized/EXEMPLAR/USED/Ecalculator1.jpg","0"
"","946","html-button-response","174","2.0.0","398645","p14k1pv55tw","wallaby","no","1","Which of these items did you see earlier?","","","","","test","","novel","true","stimuli/organized/Novel pairs (tested)/n09apenguin.jpg","stimuli/organized/Novel pairs (tested)/n09bsaddle.jpg","1"
"","13617","html-button-response","175","2.0.0","412263","p14k1pv55tw","wallaby","no","1","Which of these items did you see earlier?","","","","","test","","state","true","stimuli/organized/STATE/USED/Sbox2.jpg","stimuli/organized/STATE/USED/Sbox1.jpg","1"
"","2565","html-button-response","176","2.0.0","414830","p14k1pv55tw","wallaby","no","1","Which of these items did you see earlier?","","","","","test","","state","true","stimuli/organized/STATE/USED/Seggs1.jpg","stimuli/organized/STATE/USED/Seggs2.jpg","1"
"","2513","html-button-response","177","2.0.0","417345","p14k1pv55tw","wallaby","no","1","Which of these items did you see earlier?","","","","","test","","state","true","stimuli/organized/STATE/USED/Sscissors2.JPG","stimuli/organized/STATE/USED/Sscissors1.JPG","1"
"","1783","html-button-response","178","2.0.0","419130","p14k1pv55tw","wallaby","no","0","Which of these items did you see earlier?","","","","","test","","state","true","stimuli/organized/STATE/USED/Sgiftbag2.jpg","stimuli/organized/STATE/USED/Sgiftbag1.jpg","0"
"","1630","html-button-response","179","2.0.0","420762","p14k1pv55tw","wallaby","no","1","Which of these items did you see earlier?","","","","","test","","state","true","stimuli/organized/STATE/USED/Sdryer2.jpg","stimuli/organized/STATE/USED/Sdryer1.jpg","1"
"","1083","html-button-response","180","2.0.0","421847","p14k1pv55tw","wallaby","no","0","Which of these items did you see earlier?","","","","","test","","novel","true","stimuli/organized/Novel pairs (tested)/n14acigarette.jpg","stimuli/organized/Novel pairs (tested)/n14bgolfball.jpg","0"
"","2348","html-button-response","181","2.0.0","424196","p14k1pv55tw","wallaby","no","0","Which of these items did you see earlier?","","","","","test","","exemplar","false","stimuli/organized/EXEMPLAR/USED/Ebread1.jpg","stimuli/organized/EXEMPLAR/USED/Ebread2.jpg","1"
"","1264","html-button-response","182","2.0.0","425462","p14k1pv55tw","wallaby","no","0","Which of these items did you see earlier?","","","","","test","","exemplar","true","stimuli/organized/EXEMPLAR/USED/Efan2.jpg","stimuli/organized/EXEMPLAR/USED/Efan1.jpg","0"
"","1182","html-button-response","183","2.0.0","426646","p14k1pv55tw","wallaby","no","1","Which of these items did you see earlier?","","","","","test","","state","true","stimuli/organized/STATE/USED/Sflask2.jpg","stimuli/organized/STATE/USED/Sflask1.jpg","1"
"","2365","html-button-response","184","2.0.0","429012","p14k1pv55tw","wallaby","no","0","Which of these items did you see earlier?","","","","","test","","state","false","stimuli/organized/STATE/USED/Spie1.JPG","stimuli/organized/STATE/USED/Spie2.JPG","1"
"","1898","html-button-response","185","2.0.0","430912","p14k1pv55tw","wallaby","no","1","Which of these items did you see earlier?","","","","","test","","novel","true","stimuli/organized/Novel pairs (tested)/n08aoven.jpg","stimuli/organized/Novel pairs (tested)/n08bpaperclip.jpg","1"
"","4033","html-button-response","186","2.0.0","434946","p14k1pv55tw","wallaby","no","0","Which of these items did you see earlier?","","","","","test","","state","false","stimuli/organized/STATE/USED/Sgiftbox2.jpg","stimuli/organized/STATE/USED/Sgiftbox1.jpg","1"
"","3048","html-button-response","187","2.0.0","437995","p14k1pv55tw","wallaby","no","1","Which of these items did you see earlier?","","","","","test","","state","false","stimuli/organized/STATE/USED/Scookies2.JPG","stimuli/organized/STATE/USED/Scookies1.JPG","0"
"","1216","html-button-response","188","2.0.0","439213","p14k1pv55tw","wallaby","no","0","Which of these items did you see earlier?","","","","","test","","state","false","stimuli/organized/STATE/USED/Scrayons1.jpg","stimuli/organized/STATE/USED/Scrayons2.jpg","1"
"","1681","html-button-response","189","2.0.0","440895","p14k1pv55tw","wallaby","no","0","Which of these items did you see earlier?","","","","","test","","state","false","stimuli/organized/STATE/USED/Sbriefcase2.jpg","stimuli/organized/STATE/USED/Sbriefcase1.jpg","1"
"","965","html-button-response","190","2.0.0","441863","p14k1pv55tw","wallaby","no","1","Which of these items did you see earlier?","","","","","test","","novel","true","stimuli/organized/Novel pairs (tested)/n18apretzel.jpg","stimuli/organized/Novel pairs (tested)/n18bsnail.jpg","1"
"","2382","html-button-response","191","2.0.0","444246","p14k1pv55tw","wallaby","no","1","Which of these items did you see earlier?","","","","","test","","exemplar","true","stimuli/organized/EXEMPLAR/USED/Edispenser1.jpg","stimuli/organized/EXEMPLAR/USED/Edispenser2.jpg","1"
"","964","html-button-response","192","2.0.0","445213","p14k1pv55tw","wallaby","no","1","Which of these items did you see earlier?","","","","","test","","novel","true","stimuli/organized/Novel pairs (tested)/n01aladybug.jpg","stimuli/organized/Novel pairs (tested)/n01bcoin.jpg","1"
"","1465","html-button-response","193","2.0.0","446679","p14k1pv55tw","wallaby","no","1","Which of these items did you see earlier?","","","","","test","","state","false","stimuli/organized/STATE/USED/Sdishes1.JPG","stimuli/organized/STATE/USED/Sdishes2.JPG","0"
"","1048","html-button-response","194","2.0.0","447729","p14k1pv55tw","wallaby","no","1","Which of these items did you see earlier?","","","","","test","","state","false","stimuli/organized/STATE/USED/Sdresser1.jpg","stimuli/organized/STATE/USED/Sdresser2.jpg","0"
"","934","html-button-response","195","2.0.0","448665","p14k1pv55tw","wallaby","no","0","Which of these items did you see earlier?","","","","","test","","novel","true","stimuli/organized/Novel pairs (tested)/n06acane.jpg","stimuli/organized/Novel pairs (tested)/n06blipstick.jpg","0"
"","1096","html-button-response","196","2.0.0","449762","p14k1pv55tw","wallaby","no","0","Which of these items did you see earlier?","","","","","test","","state","true","stimuli/organized/STATE/USED/Sscanner2.JPG","stimuli/organized/STATE/USED/Sscanner1.JPG","0"
"","1500","html-button-response","197","2.0.0","451263","p14k1pv55tw","wallaby","no","1","Which of these items did you see earlier?","","","","","test","","exemplar","true","stimuli/organized/EXEMPLAR/USED/Eglobe1.jpg","stimuli/organized/EXEMPLAR/USED/Eglobe2.jpg","1"
"","1780","html-button-response","198","2.0.0","453045","p14k1pv55tw","wallaby","no","0","Which of these items did you see earlier?","","","","","test","","exemplar","true","stimuli/organized/EXEMPLAR/USED/Ebasket2.jpg","stimuli/organized/EXEMPLAR/USED/Ebasket1.jpg","0"
"","949","html-button-response","199","2.0.0","453996","p14k1pv55tw","wallaby","no","1","Which of these items did you see earlier?","","","","","test","","novel","true","stimuli/organized/Novel pairs (tested)/n17bweddingdress.jpg","stimuli/organized/Novel pairs (tested)/n17avendingmachine.jpg","1"
"","1900","html-button-response","200","2.0.0","455898","p14k1pv55tw","wallaby","no","0","Which of these items did you see earlier?","","","","","test","","exemplar","true","stimuli/organized/EXEMPLAR/USED/Ebell2.jpg","stimuli/organized/EXEMPLAR/USED/Ebell1.jpg","0"
"","1414","html-button-response","201","2.0.0","457313","p14k1pv55tw","wallaby","no","0","Which of these items did you see earlier?","","","","","test","","state","true","stimuli/organized/STATE/USED/Sbooks2.JPG","stimuli/organized/STATE/USED/Sbooks1.JPG","0"
"","1115","html-button-response","202","2.0.0","458429","p14k1pv55tw","wallaby","no","1","Which of these items did you see earlier?","","","","","test","","novel","true","stimuli/organized/Novel pairs (tested)/n03bbagel.jpg","stimuli/organized/Novel pairs (tested)/n03acamel.jpg","1"
"","1449","html-button-response","203","2.0.0","459880","p14k1pv55tw","wallaby","no","1","Which of these items did you see earlier?","","","","","test","","state","false","stimuli/organized/STATE/USED/Sbabytoy1.JPG","stimuli/organized/STATE/USED/Sbabytoy2.JPG","0"
"","1131","html-button-response","204","2.0.0","461012","p14k1pv55tw","wallaby","no","0","Which of these items did you see earlier?","","","","","test","","novel","true","stimuli/organized/Novel pairs (tested)/n16bhammer.jpg","stimuli/organized/Novel pairs (tested)/n16abananas.jpg","0"
"","1465","html-button-response","205","2.0.0","462479","p14k1pv55tw","wallaby","no","1","Which of these items did you see earlier?","","","","","test","","exemplar","true","stimuli/organized/EXEMPLAR/USED/Egoggles2.jpg","stimuli/organized/EXEMPLAR/USED/Egoggles1.jpg","1"
"","1134","html-button-response","206","2.0.0","463615","p14k1pv55tw","wallaby","no","0","Which of these items did you see earlier?","","","","","test","","exemplar","true","stimuli/organized/EXEMPLAR/USED/Echocolatebar1.jpg","stimuli/organized/EXEMPLAR/USED/Echocolatebar2.jpg","0"
"","1579","html-button-response","207","2.0.0","465195","p14k1pv55tw","wallaby","no","0","Which of these items did you see earlier?","","","","","test","","state","true","stimuli/organized/STATE/USED/Sapplesgreenbasket1.jpg","stimuli/organized/STATE/USED/Sapplesgreenbasket2.jpg","0"
"","2015","html-button-response","208","2.0.0","467211","p14k1pv55tw","wallaby","no","1","Which of these items did you see earlier?","","","","","test","","state","false","stimuli/organized/STATE/USED/Sdrum2.jpg","stimuli/organized/STATE/USED/Sdrum1.jpg","0"
"","1150","html-button-response","209","2.0.0","468362","p14k1pv55tw","wallaby","no","1","Which of these items did you see earlier?","","","","","test","","exemplar","true","stimuli/organized/EXEMPLAR/USED/Econe1.jpg","stimuli/organized/EXEMPLAR/USED/Econe2.jpg","1"
"","2282","html-button-response","210","2.0.0","470646","p14k1pv55tw","wallaby","no","1","Which of these items did you see earlier?","","","","","test","","novel","true","stimuli/organized/Novel pairs (tested)/n20acarseat.jpg","stimuli/organized/Novel pairs (tested)/n20bshelf.jpg","1"
"","1198","html-button-response","211","2.0.0","471846","p14k1pv55tw","wallaby","no","0","Which of these items did you see earlier?","","","","","test","","novel","true","stimuli/organized/Novel pairs (tested)/n04ayarn.jpg","stimuli/organized/Novel pairs (tested)/n04bbandaid.jpg","0"
"","1450","html-button-response","212","2.0.0","473297","p14k1pv55tw","wallaby","no","1","Which of these items did you see earlier?","","","","","test","","state","true","stimuli/organized/STATE/USED/Sbelt2.jpg","stimuli/organized/STATE/USED/Sbelt1.jpg","1"
"","1997","html-button-response","213","2.0.0","475296","p14k1pv55tw","wallaby","no","1","Which of these items did you see earlier?","","","","","test","","state","true","stimuli/organized/STATE/USED/Scontainer2.JPG","stimuli/organized/STATE/USED/Scontainer1.JPG","1"
"","3034","html-button-response","214","2.0.0","478331","p14k1pv55tw","wallaby","no","1","Which of these items did you see earlier?","","","","","test","","state","true","stimuli/organized/STATE/USED/Sdie2.jpg","stimuli/organized/STATE/USED/Sdie1.jpg","1"
"","1446","html-button-response","215","2.0.0","479779","p14k1pv55tw","wallaby","no","0","Which of these items did you see earlier?","","","","","test","","state","true","stimuli/organized/STATE/USED/Sbureau2.JPG","stimuli/organized/STATE/USED/Sbureau1.JPG","0"
"","1298","html-button-response","216","2.0.0","481079","p14k1pv55tw","wallaby","no","0","Which of these items did you see earlier?","","","","","test","","novel","true","stimuli/organized/Novel pairs (tested)/n05abarrel.jpg","stimuli/organized/Novel pairs (tested)/n05bcactus.jpg","0"
"","1266","html-button-response","217","2.0.0","482347","p14k1pv55tw","wallaby","no","1","Which of these items did you see earlier?","","","","","test","","state","true","stimuli/organized/STATE/USED/Sbottles2.JPG","stimuli/organized/STATE/USED/Sbottles1.JPG","1"
"","2150","html-button-response","218","2.0.0","484498","p14k1pv55tw","wallaby","no","0","Which of these items did you see earlier?","","","","","test","","state","true","stimuli/organized/STATE/USED/Shairbrush1.jpg","stimuli/organized/STATE/USED/Shairbrush2.jpg","0"
"","1113","html-button-response","219","2.0.0","485613","p14k1pv55tw","wallaby","no","0","Which of these items did you see earlier?","","","","","test","","exemplar","true","stimuli/organized/EXEMPLAR/USED/Echisel2.jpg","stimuli/organized/EXEMPLAR/USED/Echisel1.jpg","0"
"","1332","html-button-response","220","2.0.0","486947","p14k1pv55tw","wallaby","no","0","Which of these items did you see earlier?","","","","","test","","exemplar","true","stimuli/organized/EXEMPLAR/USED/Egame1.jpg","stimuli/organized/EXEMPLAR/USED/Egame2.jpg","0"
"","1298","html-button-response","221","2.0.0","488247","p14k1pv55tw","wallaby","no","0","Which of these items did you see earlier?","","","","","test","","exemplar","true","stimuli/organized/EXEMPLAR/USED/Egrapes1.jpg","stimuli/organized/EXEMPLAR/USED/Egrapes2.jpg","0"
"","2648","html-button-response","222","2.0.0","490897","p14k1pv55tw","wallaby","no","0","Which of these items did you see earlier?","","","","","test","","exemplar","true","stimuli/organized/EXEMPLAR/USED/Ecabinet2.jpg","stimuli/organized/EXEMPLAR/USED/Ecabinet1.jpg","0"
"","1916","html-button-response","223","2.0.0","492814","p14k1pv55tw","wallaby","no","0","Which of these items did you see earlier?","","","","","test","","state","false","stimuli/organized/STATE/USED/Sfiretrucktoy2.jpg","stimuli/organized/STATE/USED/Sfiretrucktoy1.jpg","1"
"","1081","html-button-response","224","2.0.0","493896","p14k1pv55tw","wallaby","no","0","Which of these items did you see earlier?","","","","","test","","state","false","stimuli/organized/STATE/USED/Schinesefoodbox2.jpg","stimuli/organized/STATE/USED/Schinesefoodbox1.jpg","1"
"","834","html-button-response","225","2.0.0","494731","p14k1pv55tw","wallaby","no","0","Which of these items did you see earlier?","","","","","test","","novel","true","stimuli/organized/Novel pairs (tested)/n19apickle.jpg","stimuli/organized/Novel pairs (tested)/n19bhairbrush.jpg","0"
"","1346","html-button-response","226","2.0.0","496080","p14k1pv55tw","wallaby","no","0","Which of these items did you see earlier?","","","","","test","","novel","true","stimuli/organized/Novel pairs (tested)/n15aspiderweb.jpg","stimuli/organized/Novel pairs (tested)/n15bfootball.jpg","0"
"","1198","html-button-response","227","2.0.0","497279","p14k1pv55tw","wallaby","no","0","Which of these items did you see earlier?","","","","","test","","state","true","stimuli/organized/STATE/USED/Sdonut1.jpg","stimuli/organized/STATE/USED/Sdonut2.jpg","0"
"","999","html-button-response","228","2.0.0","498280","p14k1pv55tw","wallaby","no","0","Which of these items did you see earlier?","","","","","test","","exemplar","true","stimuli/organized/EXEMPLAR/USED/Efeather2.jpg","stimuli/organized/EXEMPLAR/USED/Efeather1.jpg","0"
"","1547","html-button-response","229","2.0.0","499828","p14k1pv55tw","wallaby","no","1","Which of these items did you see earlier?","","","","","test","","exemplar","true","stimuli/organized/EXEMPLAR/USED/Ecamera1.jpg","stimuli/organized/EXEMPLAR/USED/Ecamera2.jpg","1"
"","1017","html-button-response","230","2.0.0","500847","p14k1pv55tw","wallaby","no","0","Which of these items did you see earlier?","","","","","test","","novel","true","stimuli/organized/Novel pairs (tested)/n12bwatch.jpg","stimuli/organized/Novel pairs (tested)/n12atelescope.jpg","0"
"","1698","html-button-response","231","2.0.0","502547","p14k1pv55tw","wallaby","no","1","Which of these items did you see earlier?","","","","","test","","state","true","stimuli/organized/STATE/USED/Slaptop1.JPG","stimuli/organized/STATE/USED/Slaptop2.JPG","1"
"","1000","html-button-response","232","2.0.0","503548","p14k1pv55tw","wallaby","no","0","Which of these items did you see earlier?","","","","","test","","state","true","stimuli/organized/STATE/USED/Sjuiceglass2.JPG","stimuli/organized/STATE/USED/Sjuiceglass1.JPG","0"
"","1147","html-button-response","233","2.0.0","504696","p14k1pv55tw","wallaby","no","0","Which of these items did you see earlier?","","","","","test","","state","false","stimuli/organized/STATE/USED/Sbrushes2.jpg","stimuli/organized/STATE/USED/Sbrushes1.jpg","1"
"","2015","html-button-response","234","2.0.0","506713","p14k1pv55tw","wallaby","no","1","Which of these items did you see earlier?","","","","","test","","exemplar","true","stimuli/organized/EXEMPLAR/USED/Ebicycle1.jpg","stimuli/organized/EXEMPLAR/USED/Ebicycle2.jpg","1"
"","865","html-button-response","235","2.0.0","507579","p14k1pv55tw","wallaby","no","0","Which of these items did you see earlier?","","","","","test","","novel","true","stimuli/organized/Novel pairs (tested)/n07apotato.jpg","stimuli/organized/Novel pairs (tested)/n07bswimmingpool.jpg","0"
"","1533","html-button-response","236","2.0.0","509114","p14k1pv55tw","wallaby","no","0","Which of these items did you see earlier?","","","","","test","","state","true","stimuli/organized/STATE/USED/Spotpan1.JPG","stimuli/organized/STATE/USED/Spotpan2.JPG","0"
"","1247","html-button-response","237","2.0.0","510362","p14k1pv55tw","wallaby","no","1","Which of these items did you see earlier?","","","","","test","","exemplar","true","stimuli/organized/EXEMPLAR/USED/Ecar2.jpg","stimuli/organized/EXEMPLAR/USED/Ecar1.jpg","1"
"","1765","html-button-response","238","2.0.0","512129","p14k1pv55tw","wallaby","no","1","Which of these items did you see earlier?","","","","","test","","novel","true","stimuli/organized/Novel pairs (tested)/n11bsock.jpg","stimuli/organized/Novel pairs (tested)/n11abatteries.jpg","1"
"","1915","html-button-response","239","2.0.0","514046","p14k1pv55tw","wallaby","no","0","Which of these items did you see earlier?","","","","","test","","novel","true","stimuli/organized/Novel pairs (tested)/n10awindmill.jpg","stimuli/organized/Novel pairs (tested)/n10bturkey.jpg","0"
"","2032","html-button-response","240","2.0.0","516079","p14k1pv55tw","wallaby","no","1","Which of these items did you see earlier?","","","","","test","","exemplar","true","stimuli/organized/EXEMPLAR/USED/Eframe1.jpg","stimuli/organized/EXEMPLAR/USED/Eframe2.jpg","1"
"","1365","html-button-response","241","2.0.0","517446","p14k1pv55tw","wallaby","no","1","Which of these items did you see earlier?","","","","","test","","state","true","stimuli/organized/STATE/USED/Sabacus1.jpg","stimuli/organized/STATE/USED/Sabacus2.jpg","1"
"","1081","html-button-response","242","2.0.0","518528","p14k1pv55tw","wallaby","no","0","Which of these items did you see earlier?","","","","","test","","novel","true","stimuli/organized/Novel pairs (tested)/n13bdustpan.jpg","stimuli/organized/Novel pairs (tested)/n13ablueberries.jpg","0"
"","1468","html-button-response","243","2.0.0","519998","p14k1pv55tw","wallaby","no","0","Which of these items did you see earlier?","","","","","test","","state","false","stimuli/organized/STATE/USED/Sgrinder1.jpg","stimuli/organized/STATE/USED/Sgrinder2.jpg","1"
"","28397","survey-html-form","244","2.0.0","548396","p14k1pv55tw","wallaby","no","{""age"":""22"",""gender"":""female"",""memory_experiment_experience"":""no""}","","","","","","","","","","","",""
"","110349","survey-text","245","2.0.0","658745","p14k1pv55tw","wallaby","no","{""task_guess"":""The experiment was about the ability to remember details of images""}","","","","","","","","","","","",""
"","4054","survey-text","246","2.0.0","662800","p14k1pv55tw","wallaby","no","{""technical_issues_question"":""no""}","","","","","","","","","","","",""
