"success","rt","trial_type","trial_index","plugin_version","time_elapsed","random_id","participant","technical_issues","response","stimulus","timeout","failed_images","failed_audio","failed_video","trial_phase","is_repeat","test_type","correct","old_image","new_image","correct_position"
"true","288995","fullscreen","0","null","290016","p3cwg5ju6uz","antelope","no","","","","","","","","","","","","",""
"","8537","survey-text","1","2.0.0","298561","p3cwg5ju6uz","antelope","no","{""participant_id"":""antelope""}","","","","","","","","","","","",""
"","32460","html-keyboard-response","2","2.0.0","331024","p3cwg5ju6uz","antelope","no"," ","
      <p>In this experiment, a series of objects will be displayed.</p>
      <p>Try to memorize as much as possible about the objects.</p>
      <p>If the image is a <strong> repeat</strong>, press the SPACEBAR.</p>
      <p>Press any key to begin.</p>
    ","","","","","","","","","","",""
"true","","preload","3","2.0.0","332072","p3cwg5ju6uz","antelope","no","","","false","[]","[]","[]","","","","","","",""
"","null","html-keyboard-response","4","2.0.0","333076","p3cwg5ju6uz","antelope","no","null","<div style=""font-size:60px;"">+</div>","","","","","","","","","","",""
"","null","image-keyboard-response","5","2.0.0","336097","p3cwg5ju6uz","antelope","no","null","stimuli/organized/EXEMPLAR/USED/Eglobe1.jpg","","","","","memory","false","exemplar","true","","",""
"","null","html-keyboard-response","6","2.0.0","337105","p3cwg5ju6uz","antelope","no","null","<div style=""font-size:60px; color:black;"">+</div>","","","","","","","","","","",""
"","null","image-keyboard-response","7","2.0.0","340109","p3cwg5ju6uz","antelope","no","null","stimuli/organized/STATE/USED/Sbelt1.jpg","","","","","memory","false","state","true","","",""
"","null","html-keyboard-response","8","2.0.0","341123","p3cwg5ju6uz","antelope","no","null","<div style=""font-size:60px; color:black;"">+</div>","","","","","","","","","","",""
"","null","image-keyboard-response","9","2.0.0","344139","p3cwg5ju6uz","antelope","no","null","stimuli/organized/Novel pairs (tested)/n12bwatch.jpg","","","","","memory","false","novel","true","","",""
"","null","html-keyboard-response","10","2.0.0","345147","p3cwg5ju6uz","antelope","no","null","<div style=""font-size:60px; color:black;"">+</div>","","","","","","","","","","",""
"","null","image-keyboard-response","11","2.0.0","348153","p3cwg5ju6uz","antelope","no","null","stimuli/organized/STATE/USED/Spie2.JPG","","","","","memory","false","state","true","","",""
"","null","html-keyboard-response","12","2.0.0","349169","p3cwg5ju6uz","antelope","no","null","<div style=""font-size:60px; color:black;"">+</div>","","","","","","","","","","",""
"","null","image-keyboard-response","13","2.0.0","352180","p3cwg5ju6uz","antelope","no","null","stimuli/organized/STATE/USED/Sdresser2.jpg","","","","","memory","false","state","true","","",""
"","null","html-keyboard-response","14","2.0.0","353189","p3cwg5ju6uz","antelope","no","null","<div style=""font-size:60px; color:black;"">+</div>","","","","","","","","","","",""
"","null","image-keyboard-response","15","2.0.0","356206","p3cwg5ju6uz","antelope","no","null","stimuli/organized/STATE/USED/Sbottles2.JPG","","","","","memory","false","state","true","","",""
"","null","html-keyboard-response","16","2.0.0","357215","p3cwg5ju6uz","antelope","no","null","<div style=""font-size:60px; color:black;"">+</div>","","","","","","","","","","",""
"","null","image-keyboard-response","17","2.0.0","360218","p3cwg5ju6uz","antelope","no","null","stimuli/organized/Novel pairs (tested)/n06blipstick.jpg","","","","","memory","false","novel","true","","",""
"","null","html-keyboard-response","18","2.0.0","361227","p3cwg5ju6uz","antelope","no","null","<div style=""font-size:60px; color:black;"">+</div>","","","","","","","","","","",""
"","null","image-keyboard-response","19","2.0.0","364242","p3cwg5ju6uz","antelope","no","null","stimuli/organized/STATE/USED/Spotpan1.JPG","","","","","memory","false","state","true","","",""
"","null","html-keyboard-response","20","2.0.0","365256","p3cwg5ju6uz","antelope","no","null","<div style=""font-size:60px; color:black;"">+</div>","","","","","","","","","","",""
"","null","image-keyboard-response","21","2.0.0","368260","p3cwg5ju6uz","antelope","no","null","stimuli/organized/STATE/USED/Schinesefoodbox2.jpg","","","","","memory","false","state","true","","",""
"","null","html-keyboard-response","22","2.0.0","369272","p3cwg5ju6uz","antelope","no","null","<div style=""font-size:60px; color:black;"">+</div>","","","","","","","","","","",""
"","null","image-keyboard-response","23","2.0.0","372282","p3cwg5ju6uz","antelope","no","null","stimuli/organized/Novel pairs (tested)/n16abananas.jpg","","","","","memory","false","novel","true","","",""
"","null","html-keyboard-response","24","2.0.0","373294","p3cwg5ju6uz","antelope","no","null","<div style=""font-size:60px; color:black;"">+</div>","","","","","","","","","","",""
"","null","image-keyboard-response","25","2.0.0","376298","p3cwg5ju6uz","antelope","no","null","stimuli/organized/Novel pairs (tested)/n05abarrel.jpg","","","","","memory","false","novel","true","","",""
"","null","html-keyboard-response","26","2.0.0","377307","p3cwg5ju6uz","antelope","no","null","<div style=""font-size:60px; color:black;"">+</div>","","","","","","","","","","",""
"","null","image-keyboard-response","27","2.0.0","380316","p3cwg5ju6uz","antelope","no","null","stimuli/organized/EXEMPLAR/USED/Echisel2.jpg","","","","","memory","false","exemplar","true","","",""
"","null","html-keyboard-response","28","2.0.0","381327","p3cwg5ju6uz","antelope","no","null","<div style=""font-size:60px; color:black;"">+</div>","","","","","","","","","","",""
"","null","image-keyboard-response","29","2.0.0","384334","p3cwg5ju6uz","antelope","no","null","stimuli/organized/Novel pairs (tested)/n20acarseat.jpg","","","","","memory","false","novel","true","","",""
"","null","html-keyboard-response","30","2.0.0","385341","p3cwg5ju6uz","antelope","no","null","<div style=""font-size:60px; color:black;"">+</div>","","","","","","","","","","",""
"","null","image-keyboard-response","31","2.0.0","388359","p3cwg5ju6uz","antelope","no","null","stimuli/organized/STATE/USED/Sdonut2.jpg","","","","","memory","false","state","true","","",""
"","null","html-keyboard-response","32","2.0.0","389370","p3cwg5ju6uz","antelope","no","null","<div style=""font-size:60px; color:black;"">+</div>","","","","","","","","","","",""
"","null","image-keyboard-response","33","2.0.0","392376","p3cwg5ju6uz","antelope","no","null","stimuli/organized/EXEMPLAR/USED/Echocolatebar1.jpg","","","","","memory","false","exemplar","true","","",""
"","null","html-keyboard-response","34","2.0.0","393387","p3cwg5ju6uz","antelope","no","null","<div style=""font-size:60px; color:black;"">+</div>","","","","","","","","","","",""
"","null","image-keyboard-response","35","2.0.0","396395","p3cwg5ju6uz","antelope","no","null","stimuli/organized/Novel pairs (tested)/n09apenguin.jpg","","","","","memory","false","novel","true","","",""
"","null","html-keyboard-response","36","2.0.0","397405","p3cwg5ju6uz","antelope","no","null","<div style=""font-size:60px; color:black;"">+</div>","","","","","","","","","","",""
"","null","image-keyboard-response","37","2.0.0","400421","p3cwg5ju6uz","antelope","no","null","stimuli/organized/EXEMPLAR/USED/Ebread2.jpg","","","","","memory","false","exemplar","true","","",""
"","null","html-keyboard-response","38","2.0.0","401433","p3cwg5ju6uz","antelope","no","null","<div style=""font-size:60px; color:black;"">+</div>","","","","","","","","","","",""
"","null","image-keyboard-response","39","2.0.0","404451","p3cwg5ju6uz","antelope","no","null","stimuli/organized/EXEMPLAR/USED/Ecalculator2.jpg","","","","","memory","false","exemplar","true","","",""
"","null","html-keyboard-response","40","2.0.0","405462","p3cwg5ju6uz","antelope","no","null","<div style=""font-size:60px; color:black;"">+</div>","","","","","","","","","","",""
"","null","image-keyboard-response","41","2.0.0","408476","p3cwg5ju6uz","antelope","no","null","stimuli/organized/STATE/USED/Sabacus2.jpg","","","","","memory","false","state","true","","",""
"","null","html-keyboard-response","42","2.0.0","409487","p3cwg5ju6uz","antelope","no","null","<div style=""font-size:60px; color:black;"">+</div>","","","","","","","","","","",""
"","null","image-keyboard-response","43","2.0.0","412504","p3cwg5ju6uz","antelope","no","null","stimuli/organized/STATE/USED/Sscanner1.JPG","","","","","memory","false","state","true","","",""
"","null","html-keyboard-response","44","2.0.0","413513","p3cwg5ju6uz","antelope","no","null","<div style=""font-size:60px; color:black;"">+</div>","","","","","","","","","","",""
"","null","image-keyboard-response","45","2.0.0","416523","p3cwg5ju6uz","antelope","no","null","stimuli/organized/EXEMPLAR/USED/Egrapes2.jpg","","","","","memory","false","exemplar","true","","",""
"","null","html-keyboard-response","46","2.0.0","417537","p3cwg5ju6uz","antelope","no","null","<div style=""font-size:60px; color:black;"">+</div>","","","","","","","","","","",""
"","null","image-keyboard-response","47","2.0.0","420553","p3cwg5ju6uz","antelope","no","null","stimuli/organized/STATE/USED/Sdishes1.JPG","","","","","memory","false","state","true","","",""
"","null","html-keyboard-response","48","2.0.0","421563","p3cwg5ju6uz","antelope","no","null","<div style=""font-size:60px; color:black;"">+</div>","","","","","","","","","","",""
"","null","image-keyboard-response","49","2.0.0","424566","p3cwg5ju6uz","antelope","no","null","stimuli/organized/Novel pairs (tested)/n04bbandaid.jpg","","","","","memory","false","novel","true","","",""
"","null","html-keyboard-response","50","2.0.0","425574","p3cwg5ju6uz","antelope","no","null","<div style=""font-size:60px; color:black;"">+</div>","","","","","","","","","","",""
"","null","image-keyboard-response","51","2.0.0","428580","p3cwg5ju6uz","antelope","no","null","stimuli/organized/STATE/USED/Seggs1.jpg","","","","","memory","false","state","true","","",""
"","null","html-keyboard-response","52","2.0.0","429593","p3cwg5ju6uz","antelope","no","null","<div style=""font-size:60px; color:black;"">+</div>","","","","","","","","","","",""
"","null","image-keyboard-response","53","2.0.0","432596","p3cwg5ju6uz","antelope","no","null","stimuli/organized/Novel pairs (tested)/n07bswimmingpool.jpg","","","","","memory","false","novel","true","","",""
"","null","html-keyboard-response","54","2.0.0","433605","p3cwg5ju6uz","antelope","no","null","<div style=""font-size:60px; color:black;"">+</div>","","","","","","","","","","",""
"","null","image-keyboard-response","55","2.0.0","436621","p3cwg5ju6uz","antelope","no","null","stimuli/organized/STATE/USED/Sbrushes1.jpg","","","","","memory","false","state","true","","",""
"","null","html-keyboard-response","56","2.0.0","437633","p3cwg5ju6uz","antelope","no","null","<div style=""font-size:60px; color:black;"">+</div>","","","","","","","","","","",""
"","null","image-keyboard-response","57","2.0.0","440641","p3cwg5ju6uz","antelope","no","null","stimuli/organized/STATE/USED/Sbooks2.JPG","","","","","memory","false","state","true","","",""
"","null","html-keyboard-response","58","2.0.0","441655","p3cwg5ju6uz","antelope","no","null","<div style=""font-size:60px; color:black;"">+</div>","","","","","","","","","","",""
"","null","image-keyboard-response","59","2.0.0","444670","p3cwg5ju6uz","antelope","no","null","stimuli/organized/STATE/USED/Sbriefcase2.jpg","","","","","memory","false","state","true","","",""
"","null","html-keyboard-response","60","2.0.0","445682","p3cwg5ju6uz","antelope","no","null","<div style=""font-size:60px; color:black;"">+</div>","","","","","","","","","","",""
"","null","image-keyboard-response","61","2.0.0","448699","p3cwg5ju6uz","antelope","no","null","stimuli/organized/STATE/USED/Sjuiceglass2.JPG","","","","","memory","false","state","true","","",""
"","null","html-keyboard-response","62","2.0.0","449709","p3cwg5ju6uz","antelope","no","null","<div style=""font-size:60px; color:black;"">+</div>","","","","","","","","","","",""
"","null","image-keyboard-response","63","2.0.0","452717","p3cwg5ju6uz","antelope","no","null","stimuli/organized/EXEMPLAR/USED/Econe1.jpg","","","","","memory","false","exemplar","true","","",""
"","null","html-keyboard-response","64","2.0.0","453730","p3cwg5ju6uz","antelope","no","null","<div style=""font-size:60px; color:black;"">+</div>","","","","","","","","","","",""
"","null","image-keyboard-response","65","2.0.0","456737","p3cwg5ju6uz","antelope","no","null","stimuli/organized/Novel pairs (tested)/n03acamel.jpg","","","","","memory","false","novel","true","","",""
"","null","html-keyboard-response","66","2.0.0","457748","p3cwg5ju6uz","antelope","no","null","<div style=""font-size:60px; color:black;"">+</div>","","","","","","","","","","",""
"","null","image-keyboard-response","67","2.0.0","460752","p3cwg5ju6uz","antelope","no","null","stimuli/organized/EXEMPLAR/USED/Ebicycle2.jpg","","","","","memory","false","exemplar","true","","",""
"","null","html-keyboard-response","68","2.0.0","461760","p3cwg5ju6uz","antelope","no","null","<div style=""font-size:60px; color:black;"">+</div>","","","","","","","","","","",""
"","null","image-keyboard-response","69","2.0.0","464775","p3cwg5ju6uz","antelope","no","null","stimuli/organized/STATE/USED/Sgiftbox1.jpg","","","","","memory","false","state","true","","",""
"","null","html-keyboard-response","70","2.0.0","465788","p3cwg5ju6uz","antelope","no","null","<div style=""font-size:60px; color:black;"">+</div>","","","","","","","","","","",""
"","null","image-keyboard-response","71","2.0.0","468799","p3cwg5ju6uz","antelope","no","null","stimuli/organized/EXEMPLAR/USED/Egame1.jpg","","","","","memory","false","exemplar","true","","",""
"","null","html-keyboard-response","72","2.0.0","469814","p3cwg5ju6uz","antelope","no","null","<div style=""font-size:60px; color:black;"">+</div>","","","","","","","","","","",""
"","null","image-keyboard-response","73","2.0.0","472818","p3cwg5ju6uz","antelope","no","null","stimuli/organized/STATE/USED/Sbureau1.JPG","","","","","memory","false","state","true","","",""
"","null","html-keyboard-response","74","2.0.0","473827","p3cwg5ju6uz","antelope","no","null","<div style=""font-size:60px; color:black;"">+</div>","","","","","","","","","","",""
"","null","image-keyboard-response","75","2.0.0","476834","p3cwg5ju6uz","antelope","no","null","stimuli/organized/STATE/USED/Sbreadbox2.JPG","","","","","memory","false","state","true","","",""
"","null","html-keyboard-response","76","2.0.0","477844","p3cwg5ju6uz","antelope","no","null","<div style=""font-size:60px; color:black;"">+</div>","","","","","","","","","","",""
"","null","image-keyboard-response","77","2.0.0","480851","p3cwg5ju6uz","antelope","no","null","stimuli/organized/Novel pairs (tested)/n10bturkey.jpg","","","","","memory","false","novel","true","","",""
"","null","html-keyboard-response","78","2.0.0","481861","p3cwg5ju6uz","antelope","no","null","<div style=""font-size:60px; color:black;"">+</div>","","","","","","","","","","",""
"","null","image-keyboard-response","79","2.0.0","484865","p3cwg5ju6uz","antelope","no","null","stimuli/organized/STATE/USED/Scontainer1.JPG","","","","","memory","false","state","true","","",""
"","null","html-keyboard-response","80","2.0.0","485880","p3cwg5ju6uz","antelope","no","null","<div style=""font-size:60px; color:black;"">+</div>","","","","","","","","","","",""
"","null","image-keyboard-response","81","2.0.0","488895","p3cwg5ju6uz","antelope","no","null","stimuli/organized/STATE/USED/Sscissors1.JPG","","","","","memory","false","state","true","","",""
"","null","html-keyboard-response","82","2.0.0","489905","p3cwg5ju6uz","antelope","no","null","<div style=""font-size:60px; color:black;"">+</div>","","","","","","","","","","",""
"","null","image-keyboard-response","83","2.0.0","492908","p3cwg5ju6uz","antelope","no","null","stimuli/organized/STATE/USED/Scoffeemaker1.JPG","","","","","memory","false","state","true","","",""
"","null","html-keyboard-response","84","2.0.0","493915","p3cwg5ju6uz","antelope","no","null","<div style=""font-size:60px; color:black;"">+</div>","","","","","","","","","","",""
"","null","image-keyboard-response","85","2.0.0","496933","p3cwg5ju6uz","antelope","no","null","stimuli/organized/EXEMPLAR/USED/Efan1.jpg","","","","","memory","false","exemplar","true","","",""
"","null","html-keyboard-response","86","2.0.0","497943","p3cwg5ju6uz","antelope","no","null","<div style=""font-size:60px; color:black;"">+</div>","","","","","","","","","","",""
"","null","image-keyboard-response","87","2.0.0","500956","p3cwg5ju6uz","antelope","no","null","stimuli/organized/STATE/USED/Sbabytoy2.JPG","","","","","memory","false","state","true","","",""
"","null","html-keyboard-response","88","2.0.0","501970","p3cwg5ju6uz","antelope","no","null","<div style=""font-size:60px; color:black;"">+</div>","","","","","","","","","","",""
"","null","image-keyboard-response","89","2.0.0","504972","p3cwg5ju6uz","antelope","no","null","stimuli/organized/EXEMPLAR/USED/Ebasket1.jpg","","","","","memory","false","exemplar","true","","",""
"","null","html-keyboard-response","90","2.0.0","505982","p3cwg5ju6uz","antelope","no","null","<div style=""font-size:60px; color:black;"">+</div>","","","","","","","","","","",""
"","null","image-keyboard-response","91","2.0.0","508999","p3cwg5ju6uz","antelope","no","null","stimuli/organized/Novel pairs (tested)/n11bsock.jpg","","","","","memory","false","novel","true","","",""
"","null","html-keyboard-response","92","2.0.0","510012","p3cwg5ju6uz","antelope","no","null","<div style=""font-size:60px; color:black;"">+</div>","","","","","","","","","","",""
"","null","image-keyboard-response","93","2.0.0","513018","p3cwg5ju6uz","antelope","no","null","stimuli/organized/EXEMPLAR/USED/Edispenser1.jpg","","","","","memory","false","exemplar","true","","",""
"","null","html-keyboard-response","94","2.0.0","514033","p3cwg5ju6uz","antelope","no","null","<div style=""font-size:60px; color:black;"">+</div>","","","","","","","","","","",""
"","782","image-keyboard-response","95","2.0.0","517050","p3cwg5ju6uz","antelope","no"," ","stimuli/organized/Novel pairs (tested)/n14acigarette.jpg","","","","","memory","false","novel","false","","",""
"","null","html-keyboard-response","96","2.0.0","518058","p3cwg5ju6uz","antelope","no","null","<div style=""font-size:60px; color:red;"">+</div>","","","","","","","","","","",""
"","864","image-keyboard-response","97","2.0.0","521064","p3cwg5ju6uz","antelope","no"," ","stimuli/organized/EXEMPLAR/USED/Egoggles1.jpg","","","","","memory","false","exemplar","false","","",""
"","null","html-keyboard-response","98","2.0.0","522075","p3cwg5ju6uz","antelope","no","null","<div style=""font-size:60px; color:red;"">+</div>","","","","","","","","","","",""
"","1157","image-keyboard-response","99","2.0.0","525092","p3cwg5ju6uz","antelope","no"," ","stimuli/organized/STATE/USED/Sdrum2.jpg","","","","","memory","false","state","false","","",""
"","null","html-keyboard-response","100","2.0.0","526105","p3cwg5ju6uz","antelope","no","null","<div style=""font-size:60px; color:red;"">+</div>","","","","","","","","","","",""
"","576","image-keyboard-response","101","2.0.0","529124","p3cwg5ju6uz","antelope","no"," ","stimuli/organized/Novel pairs (tested)/n01bcoin.jpg","","","","","memory","false","novel","false","","",""
"","null","html-keyboard-response","102","2.0.0","530138","p3cwg5ju6uz","antelope","no","null","<div style=""font-size:60px; color:red;"">+</div>","","","","","","","","","","",""
"","563","image-keyboard-response","103","2.0.0","533155","p3cwg5ju6uz","antelope","no"," ","stimuli/organized/Novel pairs (tested)/n08bpaperclip.jpg","","","","","memory","false","novel","false","","",""
"","null","html-keyboard-response","104","2.0.0","534168","p3cwg5ju6uz","antelope","no","null","<div style=""font-size:60px; color:red;"">+</div>","","","","","","","","","","",""
"","843","image-keyboard-response","105","2.0.0","537172","p3cwg5ju6uz","antelope","no"," ","stimuli/organized/EXEMPLAR/USED/Ebracelet1.jpg","","","","","memory","false","exemplar","false","","",""
"","null","html-keyboard-response","106","2.0.0","538184","p3cwg5ju6uz","antelope","no","null","<div style=""font-size:60px; color:red;"">+</div>","","","","","","","","","","",""
"","1264","image-keyboard-response","107","2.0.0","541192","p3cwg5ju6uz","antelope","no"," ","stimuli/organized/EXEMPLAR/USED/Ecamera1.jpg","","","","","memory","false","exemplar","false","","",""
"","null","html-keyboard-response","108","2.0.0","542201","p3cwg5ju6uz","antelope","no","null","<div style=""font-size:60px; color:red;"">+</div>","","","","","","","","","","",""
"","904","image-keyboard-response","109","2.0.0","545211","p3cwg5ju6uz","antelope","no"," ","stimuli/organized/Novel pairs (tested)/n17avendingmachine.jpg","","","","","memory","false","novel","false","","",""
"","null","html-keyboard-response","110","2.0.0","546223","p3cwg5ju6uz","antelope","no","null","<div style=""font-size:60px; color:red;"">+</div>","","","","","","","","","","",""
"","629","image-keyboard-response","111","2.0.0","549229","p3cwg5ju6uz","antelope","no"," ","stimuli/organized/STATE/USED/Sbox2.jpg","","","","","memory","false","state","false","","",""
"","null","html-keyboard-response","112","2.0.0","550243","p3cwg5ju6uz","antelope","no","null","<div style=""font-size:60px; color:red;"">+</div>","","","","","","","","","","",""
"","699","image-keyboard-response","113","2.0.0","553260","p3cwg5ju6uz","antelope","no"," ","stimuli/organized/Novel pairs (tested)/n05abarrel.jpg","","","","","memory","true","novel","true","","",""
"","null","html-keyboard-response","114","2.0.0","554273","p3cwg5ju6uz","antelope","no","null","<div style=""font-size:60px; color:green;"">+</div>","","","","","","","","","","",""
"","1179","image-keyboard-response","115","2.0.0","557281","p3cwg5ju6uz","antelope","no"," ","stimuli/organized/STATE/USED/Sdie1.jpg","","","","","memory","false","state","false","","",""
"","null","html-keyboard-response","116","2.0.0","558287","p3cwg5ju6uz","antelope","no","null","<div style=""font-size:60px; color:red;"">+</div>","","","","","","","","","","",""
"","null","image-keyboard-response","117","2.0.0","561291","p3cwg5ju6uz","antelope","no","null","stimuli/organized/EXEMPLAR/USED/Ecabinet1.jpg","","","","","memory","false","exemplar","true","","",""
"","null","html-keyboard-response","118","2.0.0","562300","p3cwg5ju6uz","antelope","no","null","<div style=""font-size:60px; color:black;"">+</div>","","","","","","","","","","",""
"","null","image-keyboard-response","119","2.0.0","565315","p3cwg5ju6uz","antelope","no","null","stimuli/organized/Novel pairs (tested)/n15aspiderweb.jpg","","","","","memory","false","novel","true","","",""
"","null","html-keyboard-response","120","2.0.0","566326","p3cwg5ju6uz","antelope","no","null","<div style=""font-size:60px; color:black;"">+</div>","","","","","","","","","","",""
"","854","image-keyboard-response","121","2.0.0","569343","p3cwg5ju6uz","antelope","no"," ","stimuli/organized/EXEMPLAR/USED/Ebell1.jpg","","","","","memory","false","exemplar","false","","",""
"","null","html-keyboard-response","122","2.0.0","570350","p3cwg5ju6uz","antelope","no","null","<div style=""font-size:60px; color:red;"">+</div>","","","","","","","","","","",""
"","1886","image-keyboard-response","123","2.0.0","573352","p3cwg5ju6uz","antelope","no"," ","stimuli/organized/STATE/USED/Sgrinder1.jpg","","","","","memory","false","state","false","","",""
"","null","html-keyboard-response","124","2.0.0","574362","p3cwg5ju6uz","antelope","no","null","<div style=""font-size:60px; color:red;"">+</div>","","","","","","","","","","",""
"","506","image-keyboard-response","125","2.0.0","577380","p3cwg5ju6uz","antelope","no"," ","stimuli/organized/STATE/USED/Slaptop2.JPG","","","","","memory","false","state","false","","",""
"","null","html-keyboard-response","126","2.0.0","578389","p3cwg5ju6uz","antelope","no","null","<div style=""font-size:60px; color:red;"">+</div>","","","","","","","","","","",""
"","751","image-keyboard-response","127","2.0.0","581398","p3cwg5ju6uz","antelope","no"," ","stimuli/organized/Novel pairs (tested)/n19apickle.jpg","","","","","memory","false","novel","false","","",""
"","null","html-keyboard-response","128","2.0.0","582411","p3cwg5ju6uz","antelope","no","null","<div style=""font-size:60px; color:red;"">+</div>","","","","","","","","","","",""
"","1510","image-keyboard-response","129","2.0.0","585429","p3cwg5ju6uz","antelope","no"," ","stimuli/organized/Novel pairs (tested)/n13ablueberries.jpg","","","","","memory","false","novel","false","","",""
"","null","html-keyboard-response","130","2.0.0","586441","p3cwg5ju6uz","antelope","no","null","<div style=""font-size:60px; color:red;"">+</div>","","","","","","","","","","",""
"","1355","image-keyboard-response","131","2.0.0","589445","p3cwg5ju6uz","antelope","no"," ","stimuli/organized/EXEMPLAR/USED/Ecar2.jpg","","","","","memory","false","exemplar","false","","",""
"","null","html-keyboard-response","132","2.0.0","590459","p3cwg5ju6uz","antelope","no","null","<div style=""font-size:60px; color:red;"">+</div>","","","","","","","","","","",""
"","null","image-keyboard-response","133","2.0.0","593467","p3cwg5ju6uz","antelope","no","null","stimuli/organized/STATE/USED/Sphone2.JPG","","","","","memory","false","state","true","","",""
"","null","html-keyboard-response","134","2.0.0","594481","p3cwg5ju6uz","antelope","no","null","<div style=""font-size:60px; color:black;"">+</div>","","","","","","","","","","",""
"","713","image-keyboard-response","135","2.0.0","597493","p3cwg5ju6uz","antelope","no"," ","stimuli/organized/STATE/USED/Shairbrush2.jpg","","","","","memory","false","state","false","","",""
"","null","html-keyboard-response","136","2.0.0","598496","p3cwg5ju6uz","antelope","no","null","<div style=""font-size:60px; color:red;"">+</div>","","","","","","","","","","",""
"","861","image-keyboard-response","137","2.0.0","601500","p3cwg5ju6uz","antelope","no"," ","stimuli/organized/Novel pairs (tested)/n17avendingmachine.jpg","","","","","memory","true","novel","true","","",""
"","null","html-keyboard-response","138","2.0.0","602514","p3cwg5ju6uz","antelope","no","null","<div style=""font-size:60px; color:green;"">+</div>","","","","","","","","","","",""
"","855","image-keyboard-response","139","2.0.0","605527","p3cwg5ju6uz","antelope","no"," ","stimuli/organized/STATE/USED/Sgiftbag2.jpg","","","","","memory","false","state","false","","",""
"","null","html-keyboard-response","140","2.0.0","606541","p3cwg5ju6uz","antelope","no","null","<div style=""font-size:60px; color:red;"">+</div>","","","","","","","","","","",""
"","null","image-keyboard-response","141","2.0.0","609546","p3cwg5ju6uz","antelope","no","null","stimuli/organized/STATE/USED/Sfiretrucktoy2.jpg","","","","","memory","false","state","true","","",""
"","null","html-keyboard-response","142","2.0.0","610562","p3cwg5ju6uz","antelope","no","null","<div style=""font-size:60px; color:black;"">+</div>","","","","","","","","","","",""
"","1399","image-keyboard-response","143","2.0.0","613575","p3cwg5ju6uz","antelope","no"," ","stimuli/organized/STATE/USED/Scookies2.JPG","","","","","memory","false","state","false","","",""
"","null","html-keyboard-response","144","2.0.0","614578","p3cwg5ju6uz","antelope","no","null","<div style=""font-size:60px; color:red;"">+</div>","","","","","","","","","","",""
"","1721","image-keyboard-response","145","2.0.0","617593","p3cwg5ju6uz","antelope","no"," ","stimuli/organized/STATE/USED/Sdryer2.jpg","","","","","memory","false","state","false","","",""
"","null","html-keyboard-response","146","2.0.0","618609","p3cwg5ju6uz","antelope","no","null","<div style=""font-size:60px; color:red;"">+</div>","","","","","","","","","","",""
"","null","image-keyboard-response","147","2.0.0","621619","p3cwg5ju6uz","antelope","no","null","stimuli/organized/STATE/USED/Sapplesgreenbasket2.jpg","","","","","memory","false","state","true","","",""
"","null","html-keyboard-response","148","2.0.0","622633","p3cwg5ju6uz","antelope","no","null","<div style=""font-size:60px; color:black;"">+</div>","","","","","","","","","","",""
"","null","image-keyboard-response","149","2.0.0","625650","p3cwg5ju6uz","antelope","no","null","stimuli/organized/EXEMPLAR/USED/Efeather2.jpg","","","","","memory","false","exemplar","true","","",""
"","null","html-keyboard-response","150","2.0.0","626665","p3cwg5ju6uz","antelope","no","null","<div style=""font-size:60px; color:black;"">+</div>","","","","","","","","","","",""
"","null","image-keyboard-response","151","2.0.0","629667","p3cwg5ju6uz","antelope","no","null","stimuli/organized/STATE/USED/Sbriefcase2.jpg","","","","","memory","true","state","false","","",""
"","null","html-keyboard-response","152","2.0.0","630676","p3cwg5ju6uz","antelope","no","null","<div style=""font-size:60px; color:black;"">+</div>","","","","","","","","","","",""
"","2172","image-keyboard-response","153","2.0.0","633686","p3cwg5ju6uz","antelope","no"," ","stimuli/organized/Novel pairs (tested)/n19apickle.jpg","","","","","memory","true","novel","true","","",""
"","null","html-keyboard-response","154","2.0.0","634696","p3cwg5ju6uz","antelope","no","null","<div style=""font-size:60px; color:green;"">+</div>","","","","","","","","","","",""
"","null","image-keyboard-response","155","2.0.0","637710","p3cwg5ju6uz","antelope","no","null","stimuli/organized/Novel pairs (tested)/n02aaxe.jpg","","","","","memory","false","novel","true","","",""
"","null","html-keyboard-response","156","2.0.0","638721","p3cwg5ju6uz","antelope","no","null","<div style=""font-size:60px; color:black;"">+</div>","","","","","","","","","","",""
"","873","image-keyboard-response","157","2.0.0","641728","p3cwg5ju6uz","antelope","no"," ","stimuli/organized/STATE/USED/Scrayons1.jpg","","","","","memory","false","state","false","","",""
"","null","html-keyboard-response","158","2.0.0","642737","p3cwg5ju6uz","antelope","no","null","<div style=""font-size:60px; color:red;"">+</div>","","","","","","","","","","",""
"","null","image-keyboard-response","159","2.0.0","645753","p3cwg5ju6uz","antelope","no","null","stimuli/organized/EXEMPLAR/USED/Eframe2.jpg","","","","","memory","false","exemplar","true","","",""
"","null","html-keyboard-response","160","2.0.0","646766","p3cwg5ju6uz","antelope","no","null","<div style=""font-size:60px; color:black;"">+</div>","","","","","","","","","","",""
"","1036","image-keyboard-response","161","2.0.0","649771","p3cwg5ju6uz","antelope","no"," ","stimuli/organized/STATE/USED/Sapplesgreenbasket2.jpg","","","","","memory","true","state","true","","",""
"","null","html-keyboard-response","162","2.0.0","650781","p3cwg5ju6uz","antelope","no","null","<div style=""font-size:60px; color:green;"">+</div>","","","","","","","","","","",""
"","null","image-keyboard-response","163","2.0.0","653784","p3cwg5ju6uz","antelope","no","null","stimuli/organized/STATE/USED/Sflask1.jpg","","","","","memory","false","state","true","","",""
"","null","html-keyboard-response","164","2.0.0","654797","p3cwg5ju6uz","antelope","no","null","<div style=""font-size:60px; color:black;"">+</div>","","","","","","","","","","",""
"","1014","image-keyboard-response","165","2.0.0","657805","p3cwg5ju6uz","antelope","no"," ","stimuli/organized/Novel pairs (tested)/n18bsnail.jpg","","","","","memory","false","novel","false","","",""
"","37594","html-button-response","166","2.0.0","695402","p3cwg5ju6uz","antelope","no","0","<p>You have completed the study phase.</p><p>Take a short break. Press the button below when you are ready to continue.</p>","","","","","","","","","","",""
"","9877","html-keyboard-response","167","2.0.0","705281","p3cwg5ju6uz","antelope","no"," ","<p>You will now be shown pairs of images.</p><p>Select the image you remember seeing during the study phase.</p><p>Focus on accuracy, not speed.</p><p>Press any key to begin.</p>","","","","","","","","","","",""
"","6660","html-button-response","168","2.0.0","711944","p3cwg5ju6uz","antelope","no","0","Which of these items did you see earlier?","","","","","test","","state","false","stimuli/organized/STATE/USED/Sgiftbox1.jpg","stimuli/organized/STATE/USED/Sgiftbox2.jpg","1"
"","1348","html-button-response","169","2.0.0","713295","p3cwg5ju6uz","antelope","no","1","Which of these items did you see earlier?","","","","","test","","exemplar","true","stimuli/organized/EXEMPLAR/USED/Edispenser1.jpg","stimuli/organized/EXEMPLAR/USED/Edispenser2.jpg","1"
"","1060","html-button-response","170","2.0.0","714358","p3cwg5ju6uz","antelope","no","1","Which of these items did you see earlier?","","","","","test","","state","true","stimuli/organized/STATE/USED/Slaptop2.JPG","stimuli/organized/STATE/USED/Slaptop1.JPG","1"
"","1117","html-button-response","171","2.0.0","715477","p3cwg5ju6uz","antelope","no","1","Which of these items did you see earlier?","","","","","test","","novel","true","stimuli/organized/Novel pairs (tested)/n05abarrel.jpg","stimuli/organized/Novel pairs (tested)/n05bcactus.jpg","1"
"","1117","html-button-response","172","2.0.0","716597","p3cwg5ju6uz","antelope","no","0","Which of these items did you see earlier?","","","","","test","","novel","true","stimuli/organized/Novel pairs (tested)/n17avendingmachine.jpg","stimuli/organized/Novel pairs (tested)/n17bweddingdress.jpg","0"
"","1730","html-button-response","173","2.0.0","718329","p3cwg5ju6uz","antelope","no","0","Which of these items did you see earlier?","","","","","test","","exemplar","false","stimuli/organized/EXEMPLAR/USED/Ecalculator2.jpg","stimuli/organized/EXEMPLAR/USED/Ecalculator1.jpg","1"
"","1573","html-button-response","174","2.0.0","719905","p3cwg5ju6uz","antelope","no","0","Which of these items did you see earlier?","","","","","test","","novel","true","stimuli/organized/Novel pairs (tested)/n09apenguin.jpg","stimuli/organized/Novel pairs (tested)/n09bsaddle.jpg","0"
"","1486","html-button-response","175","2.0.0","721392","p3cwg5ju6uz","antelope","no","1","Which of these items did you see earlier?","","","","","test","","novel","true","stimuli/organized/Novel pairs (tested)/n02aaxe.jpg","stimuli/organized/Novel pairs (tested)/n02bsafetypin.jpg","1"
"","1497","html-button-response","176","2.0.0","722892","p3cwg5ju6uz","antelope","no","0","Which of these items did you see earlier?","","","","","test","","exemplar","true","stimuli/organized/EXEMPLAR/USED/Egame1.jpg","stimuli/organized/EXEMPLAR/USED/Egame2.jpg","0"
"","1475","html-button-response","177","2.0.0","724369","p3cwg5ju6uz","antelope","no","0","Which of these items did you see earlier?","","","","","test","","state","false","stimuli/organized/STATE/USED/Scoffeemaker1.JPG","stimuli/organized/STATE/USED/Scoffeemaker2.JPG","1"
"","1164","html-button-response","178","2.0.0","725536","p3cwg5ju6uz","antelope","no","1","Which of these items did you see earlier?","","","","","test","","exemplar","true","stimuli/organized/EXEMPLAR/USED/Ecabinet1.jpg","stimuli/organized/EXEMPLAR/USED/Ecabinet2.jpg","1"
"","1332","html-button-response","179","2.0.0","726869","p3cwg5ju6uz","antelope","no","1","Which of these items did you see earlier?","","","","","test","","state","false","stimuli/organized/STATE/USED/Sflask1.jpg","stimuli/organized/STATE/USED/Sflask2.jpg","0"
"","1286","html-button-response","180","2.0.0","728158","p3cwg5ju6uz","antelope","no","1","Which of these items did you see earlier?","","","","","test","","novel","true","stimuli/organized/Novel pairs (tested)/n15aspiderweb.jpg","stimuli/organized/Novel pairs (tested)/n15bfootball.jpg","1"
"","1758","html-button-response","181","2.0.0","729918","p3cwg5ju6uz","antelope","no","0","Which of these items did you see earlier?","","","","","test","","novel","true","stimuli/organized/Novel pairs (tested)/n20acarseat.jpg","stimuli/organized/Novel pairs (tested)/n20bshelf.jpg","0"
"","1550","html-button-response","182","2.0.0","731471","p3cwg5ju6uz","antelope","no","0","Which of these items did you see earlier?","","","","","test","","state","true","stimuli/organized/STATE/USED/Sfiretrucktoy2.jpg","stimuli/organized/STATE/USED/Sfiretrucktoy1.jpg","0"
"","1196","html-button-response","183","2.0.0","732669","p3cwg5ju6uz","antelope","no","1","Which of these items did you see earlier?","","","","","test","","exemplar","false","stimuli/organized/EXEMPLAR/USED/Ebicycle2.jpg","stimuli/organized/EXEMPLAR/USED/Ebicycle1.jpg","0"
"","1290","html-button-response","184","2.0.0","733962","p3cwg5ju6uz","antelope","no","1","Which of these items did you see earlier?","","","","","test","","state","true","stimuli/organized/STATE/USED/Sdonut2.jpg","stimuli/organized/STATE/USED/Sdonut1.jpg","1"
"","1136","html-button-response","185","2.0.0","735101","p3cwg5ju6uz","antelope","no","1","Which of these items did you see earlier?","","","","","test","","novel","true","stimuli/organized/Novel pairs (tested)/n01bcoin.jpg","stimuli/organized/Novel pairs (tested)/n01aladybug.jpg","1"
"","1301","html-button-response","186","2.0.0","736405","p3cwg5ju6uz","antelope","no","0","Which of these items did you see earlier?","","","","","test","","state","false","stimuli/organized/STATE/USED/Sbrushes1.jpg","stimuli/organized/STATE/USED/Sbrushes2.jpg","1"
"","1275","html-button-response","187","2.0.0","737682","p3cwg5ju6uz","antelope","no","1","Which of these items did you see earlier?","","","","","test","","exemplar","true","stimuli/organized/EXEMPLAR/USED/Echisel2.jpg","stimuli/organized/EXEMPLAR/USED/Echisel1.jpg","1"
"","1286","html-button-response","188","2.0.0","738971","p3cwg5ju6uz","antelope","no","1","Which of these items did you see earlier?","","","","","test","","novel","true","stimuli/organized/Novel pairs (tested)/n07bswimmingpool.jpg","stimuli/organized/Novel pairs (tested)/n07apotato.jpg","1"
"","1319","html-button-response","189","2.0.0","740291","p3cwg5ju6uz","antelope","no","0","Which of these items did you see earlier?","","","","","test","","exemplar","true","stimuli/organized/EXEMPLAR/USED/Econe1.jpg","stimuli/organized/EXEMPLAR/USED/Econe2.jpg","0"
"","1681","html-button-response","190","2.0.0","741975","p3cwg5ju6uz","antelope","no","1","Which of these items did you see earlier?","","","","","test","","state","true","stimuli/organized/STATE/USED/Sgrinder1.jpg","stimuli/organized/STATE/USED/Sgrinder2.jpg","1"
"","1431","html-button-response","191","2.0.0","743408","p3cwg5ju6uz","antelope","no","0","Which of these items did you see earlier?","","","","","test","","exemplar","true","stimuli/organized/EXEMPLAR/USED/Efeather2.jpg","stimuli/organized/EXEMPLAR/USED/Efeather1.jpg","0"
"","1430","html-button-response","192","2.0.0","744840","p3cwg5ju6uz","antelope","no","0","Which of these items did you see earlier?","","","","","test","","state","true","stimuli/organized/STATE/USED/Sbox2.jpg","stimuli/organized/STATE/USED/Sbox1.jpg","0"
"","1137","html-button-response","193","2.0.0","745979","p3cwg5ju6uz","antelope","no","1","Which of these items did you see earlier?","","","","","test","","state","true","stimuli/organized/STATE/USED/Sdresser2.jpg","stimuli/organized/STATE/USED/Sdresser1.jpg","1"
"","1150","html-button-response","194","2.0.0","747131","p3cwg5ju6uz","antelope","no","0","Which of these items did you see earlier?","","","","","test","","state","true","stimuli/organized/STATE/USED/Spie2.JPG","stimuli/organized/STATE/USED/Spie1.JPG","0"
"","1119","html-button-response","195","2.0.0","748253","p3cwg5ju6uz","antelope","no","1","Which of these items did you see earlier?","","","","","test","","novel","true","stimuli/organized/Novel pairs (tested)/n18bsnail.jpg","stimuli/organized/Novel pairs (tested)/n18apretzel.jpg","1"
"","1012","html-button-response","196","2.0.0","749268","p3cwg5ju6uz","antelope","no","0","Which of these items did you see earlier?","","","","","test","","novel","true","stimuli/organized/Novel pairs (tested)/n14acigarette.jpg","stimuli/organized/Novel pairs (tested)/n14bgolfball.jpg","0"
"","4894","html-button-response","197","2.0.0","754163","p3cwg5ju6uz","antelope","no","1","Which of these items did you see earlier?","","","","","test","","state","true","stimuli/organized/STATE/USED/Seggs1.jpg","stimuli/organized/STATE/USED/Seggs2.jpg","1"
"","2059","html-button-response","198","2.0.0","756225","p3cwg5ju6uz","antelope","no","1","Which of these items did you see earlier?","","","","","test","","exemplar","true","stimuli/organized/EXEMPLAR/USED/Ebread2.jpg","stimuli/organized/EXEMPLAR/USED/Ebread1.jpg","1"
"","1740","html-button-response","199","2.0.0","757967","p3cwg5ju6uz","antelope","no","0","Which of these items did you see earlier?","","","","","test","","state","false","stimuli/organized/STATE/USED/Sscanner1.JPG","stimuli/organized/STATE/USED/Sscanner2.JPG","1"
"","1043","html-button-response","200","2.0.0","759012","p3cwg5ju6uz","antelope","no","1","Which of these items did you see earlier?","","","","","test","","state","false","stimuli/organized/STATE/USED/Sbreadbox2.JPG","stimuli/organized/STATE/USED/Sbreadbox1.JPG","0"
"","1012","html-button-response","201","2.0.0","760026","p3cwg5ju6uz","antelope","no","1","Which of these items did you see earlier?","","","","","test","","state","false","stimuli/organized/STATE/USED/Scookies2.JPG","stimuli/organized/STATE/USED/Scookies1.JPG","0"
"","1055","html-button-response","202","2.0.0","761083","p3cwg5ju6uz","antelope","no","0","Which of these items did you see earlier?","","","","","test","","exemplar","false","stimuli/organized/EXEMPLAR/USED/Ebasket1.jpg","stimuli/organized/EXEMPLAR/USED/Ebasket2.jpg","1"
"","947","html-button-response","203","2.0.0","762032","p3cwg5ju6uz","antelope","no","1","Which of these items did you see earlier?","","","","","test","","novel","true","stimuli/organized/Novel pairs (tested)/n04bbandaid.jpg","stimuli/organized/Novel pairs (tested)/n04ayarn.jpg","1"
"","1243","html-button-response","204","2.0.0","763278","p3cwg5ju6uz","antelope","no","1","Which of these items did you see earlier?","","","","","test","","exemplar","true","stimuli/organized/EXEMPLAR/USED/Ecamera1.jpg","stimuli/organized/EXEMPLAR/USED/Ecamera2.jpg","1"
"","1012","html-button-response","205","2.0.0","764291","p3cwg5ju6uz","antelope","no","1","Which of these items did you see earlier?","","","","","test","","state","false","stimuli/organized/STATE/USED/Scontainer1.JPG","stimuli/organized/STATE/USED/Scontainer2.JPG","0"
"","1079","html-button-response","206","2.0.0","765372","p3cwg5ju6uz","antelope","no","1","Which of these items did you see earlier?","","","","","test","","state","true","stimuli/organized/STATE/USED/Scrayons1.jpg","stimuli/organized/STATE/USED/Scrayons2.jpg","1"
"","1463","html-button-response","207","2.0.0","766838","p3cwg5ju6uz","antelope","no","0","Which of these items did you see earlier?","","","","","test","","exemplar","true","stimuli/organized/EXEMPLAR/USED/Ebell1.jpg","stimuli/organized/EXEMPLAR/USED/Ebell2.jpg","0"
"","1089","html-button-response","208","2.0.0","767929","p3cwg5ju6uz","antelope","no","1","Which of these items did you see earlier?","","","","","test","","exemplar","true","stimuli/organized/EXEMPLAR/USED/Efan1.jpg","stimuli/organized/EXEMPLAR/USED/Efan2.jpg","1"
"","1491","html-button-response","209","2.0.0","769422","p3cwg5ju6uz","antelope","no","1","Which of these items did you see earlier?","","","","","test","","novel","false","stimuli/organized/Novel pairs (tested)/n10bturkey.jpg","stimuli/organized/Novel pairs (tested)/n10awindmill.jpg","0"
"","1024","html-button-response","210","2.0.0","770448","p3cwg5ju6uz","antelope","no","0","Which of these items did you see earlier?","","","","","test","","novel","true","stimuli/organized/Novel pairs (tested)/n06blipstick.jpg","stimuli/organized/Novel pairs (tested)/n06acane.jpg","0"
"","855","html-button-response","211","2.0.0","771304","p3cwg5ju6uz","antelope","no","1","Which of these items did you see earlier?","","","","","test","","state","false","stimuli/organized/STATE/USED/Sdie1.jpg","stimuli/organized/STATE/USED/Sdie2.jpg","0"
"","1188","html-button-response","212","2.0.0","772493","p3cwg5ju6uz","antelope","no","0","Which of these items did you see earlier?","","","","","test","","state","true","stimuli/organized/STATE/USED/Sdryer2.jpg","stimuli/organized/STATE/USED/Sdryer1.jpg","0"
"","1039","html-button-response","213","2.0.0","773534","p3cwg5ju6uz","antelope","no","1","Which of these items did you see earlier?","","","","","test","","state","false","stimuli/organized/STATE/USED/Sdishes1.JPG","stimuli/organized/STATE/USED/Sdishes2.JPG","0"
"","1212","html-button-response","214","2.0.0","774748","p3cwg5ju6uz","antelope","no","1","Which of these items did you see earlier?","","","","","test","","novel","true","stimuli/organized/Novel pairs (tested)/n19apickle.jpg","stimuli/organized/Novel pairs (tested)/n19bhairbrush.jpg","1"
"","1126","html-button-response","215","2.0.0","775875","p3cwg5ju6uz","antelope","no","0","Which of these items did you see earlier?","","","","","test","","novel","false","stimuli/organized/Novel pairs (tested)/n16abananas.jpg","stimuli/organized/Novel pairs (tested)/n16bhammer.jpg","1"
"","967","html-button-response","216","2.0.0","776843","p3cwg5ju6uz","antelope","no","1","Which of these items did you see earlier?","","","","","test","","state","true","stimuli/organized/STATE/USED/Sdrum2.jpg","stimuli/organized/STATE/USED/Sdrum1.jpg","1"
"","1197","html-button-response","217","2.0.0","778041","p3cwg5ju6uz","antelope","no","1","Which of these items did you see earlier?","","","","","test","","state","true","stimuli/organized/STATE/USED/Shairbrush2.jpg","stimuli/organized/STATE/USED/Shairbrush1.jpg","1"
"","1135","html-button-response","218","2.0.0","779178","p3cwg5ju6uz","antelope","no","0","Which of these items did you see earlier?","","","","","test","","exemplar","false","stimuli/organized/EXEMPLAR/USED/Echocolatebar1.jpg","stimuli/organized/EXEMPLAR/USED/Echocolatebar2.jpg","1"
"","1010","html-button-response","219","2.0.0","780190","p3cwg5ju6uz","antelope","no","1","Which of these items did you see earlier?","","","","","test","","state","true","stimuli/organized/STATE/USED/Sabacus2.jpg","stimuli/organized/STATE/USED/Sabacus1.jpg","1"
"","1023","html-button-response","220","2.0.0","781214","p3cwg5ju6uz","antelope","no","0","Which of these items did you see earlier?","","","","","test","","novel","false","stimuli/organized/Novel pairs (tested)/n12bwatch.jpg","stimuli/organized/Novel pairs (tested)/n12atelescope.jpg","1"
"","1048","html-button-response","221","2.0.0","782264","p3cwg5ju6uz","antelope","no","1","Which of these items did you see earlier?","","","","","test","","state","false","stimuli/organized/STATE/USED/Schinesefoodbox2.jpg","stimuli/organized/STATE/USED/Schinesefoodbox1.jpg","0"
"","803","html-button-response","222","2.0.0","783069","p3cwg5ju6uz","antelope","no","1","Which of these items did you see earlier?","","","","","test","","exemplar","false","stimuli/organized/EXEMPLAR/USED/Ebracelet1.jpg","stimuli/organized/EXEMPLAR/USED/Ebracelet2.jpg","0"
"","936","html-button-response","223","2.0.0","784006","p3cwg5ju6uz","antelope","no","1","Which of these items did you see earlier?","","","","","test","","exemplar","true","stimuli/organized/EXEMPLAR/USED/Eframe2.jpg","stimuli/organized/EXEMPLAR/USED/Eframe1.jpg","1"
"","1349","html-button-response","224","2.0.0","785357","p3cwg5ju6uz","antelope","no","0","Which of these items did you see earlier?","","","","","test","","exemplar","true","stimuli/organized/EXEMPLAR/USED/Ecar2.jpg","stimuli/organized/EXEMPLAR/USED/Ecar1.jpg","0"
"","1536","html-button-response","225","2.0.0","786894","p3cwg5ju6uz","antelope","no","1","Which of these items did you see earlier?","","","","","test","","state","false","stimuli/organized/STATE/USED/Sbureau1.JPG","stimuli/organized/STATE/USED/Sbureau2.JPG","0"
"","1312","html-button-response","226","2.0.0","788208","p3cwg5ju6uz","antelope","no","1","Which of these items did you see earlier?","","","","","test","","exemplar","true","stimuli/organized/EXEMPLAR/USED/Egrapes2.jpg","stimuli/organized/EXEMPLAR/USED/Egrapes1.jpg","1"
"","978","html-button-response","227","2.0.0","789188","p3cwg5ju6uz","antelope","no","1","Which of these items did you see earlier?","","","","","test","","state","true","stimuli/organized/STATE/USED/Sbabytoy2.JPG","stimuli/organized/STATE/USED/Sbabytoy1.JPG","1"
"","1155","html-button-response","228","2.0.0","790346","p3cwg5ju6uz","antelope","no","0","Which of these items did you see earlier?","","","","","test","","state","true","stimuli/organized/STATE/USED/Sapplesgreenbasket2.jpg","stimuli/organized/STATE/USED/Sapplesgreenbasket1.jpg","0"
"","1353","html-button-response","229","2.0.0","791701","p3cwg5ju6uz","antelope","no","0","Which of these items did you see earlier?","","","","","test","","state","false","stimuli/organized/STATE/USED/Sjuiceglass2.JPG","stimuli/organized/STATE/USED/Sjuiceglass1.JPG","1"
"","1008","html-button-response","230","2.0.0","792711","p3cwg5ju6uz","antelope","no","1","Which of these items did you see earlier?","","","","","test","","state","true","stimuli/organized/STATE/USED/Sbriefcase2.jpg","stimuli/organized/STATE/USED/Sbriefcase1.jpg","1"
"","1059","html-button-response","231","2.0.0","793772","p3cwg5ju6uz","antelope","no","0","Which of these items did you see earlier?","","","","","test","","state","true","stimuli/organized/STATE/USED/Sscissors1.JPG","stimuli/organized/STATE/USED/Sscissors2.JPG","0"
"","1021","html-button-response","232","2.0.0","794795","p3cwg5ju6uz","antelope","no","1","Which of these items did you see earlier?","","","","","test","","state","true","stimuli/organized/STATE/USED/Sphone2.JPG","stimuli/organized/STATE/USED/Sphone1.JPG","1"
"","1229","html-button-response","233","2.0.0","796026","p3cwg5ju6uz","antelope","no","1","Which of these items did you see earlier?","","","","","test","","state","true","stimuli/organized/STATE/USED/Sgiftbag2.jpg","stimuli/organized/STATE/USED/Sgiftbag1.jpg","1"
"","1023","html-button-response","234","2.0.0","797051","p3cwg5ju6uz","antelope","no","1","Which of these items did you see earlier?","","","","","test","","state","true","stimuli/organized/STATE/USED/Sbooks2.JPG","stimuli/organized/STATE/USED/Sbooks1.JPG","1"
"","1534","html-button-response","235","2.0.0","798587","p3cwg5ju6uz","antelope","no","0","Which of these items did you see earlier?","","","","","test","","state","false","stimuli/organized/STATE/USED/Sbelt1.jpg","stimuli/organized/STATE/USED/Sbelt2.jpg","1"
"","1478","html-button-response","236","2.0.0","800067","p3cwg5ju6uz","antelope","no","1","Which of these items did you see earlier?","","","","","test","","state","false","stimuli/organized/STATE/USED/Sbottles2.JPG","stimuli/organized/STATE/USED/Sbottles1.JPG","0"
"","2329","html-button-response","237","2.0.0","802398","p3cwg5ju6uz","antelope","no","0","Which of these items did you see earlier?","","","","","test","","novel","true","stimuli/organized/Novel pairs (tested)/n03acamel.jpg","stimuli/organized/Novel pairs (tested)/n03bbagel.jpg","0"
"","4029","html-button-response","238","2.0.0","806429","p3cwg5ju6uz","antelope","no","1","Which of these items did you see earlier?","","","","","test","","state","true","stimuli/organized/STATE/USED/Spotpan1.JPG","stimuli/organized/STATE/USED/Spotpan2.JPG","1"
"","5206","html-button-response","239","2.0.0","811637","p3cwg5ju6uz","antelope","no","1","Which of these items did you see earlier?","","","","","test","","novel","true","stimuli/organized/Novel pairs (tested)/n11bsock.jpg","stimuli/organized/Novel pairs (tested)/n11abatteries.jpg","1"
"","1130","html-button-response","240","2.0.0","812769","p3cwg5ju6uz","antelope","no","0","Which of these items did you see earlier?","","","","","test","","exemplar","true","stimuli/organized/EXEMPLAR/USED/Eglobe1.jpg","stimuli/organized/EXEMPLAR/USED/Eglobe2.jpg","0"
"","1053","html-button-response","241","2.0.0","813824","p3cwg5ju6uz","antelope","no","1","Which of these items did you see earlier?","","","","","test","","exemplar","true","stimuli/organized/EXEMPLAR/USED/Egoggles1.jpg","stimuli/organized/EXEMPLAR/USED/Egoggles2.jpg","1"
"","1623","html-button-response","242","2.0.0","815449","p3cwg5ju6uz","antelope","no","0","Which of these items did you see earlier?","","","","","test","","novel","true","stimuli/organized/Novel pairs (tested)/n13ablueberries.jpg","stimuli/organized/Novel pairs (tested)/n13bdustpan.jpg","0"
"","1098","html-button-response","243","2.0.0","816549","p3cwg5ju6uz","antelope","no","1","Which of these items did you see earlier?","","","","","test","","novel","true","stimuli/organized/Novel pairs (tested)/n08bpaperclip.jpg","stimuli/organized/Novel pairs (tested)/n08aoven.jpg","1"
"","11231","survey-html-form","244","2.0.0","827784","p3cwg5ju6uz","antelope","no","{""age"":""23"",""gender"":""female"",""memory_experiment_experience"":""yes""}","","","","","","","","","","","",""
"","5511","survey-text","245","2.0.0","833300","p3cwg5ju6uz","antelope","no","{""task_guess"":""Test memory""}","","","","","","","","","","","",""
"","1689","survey-text","246","2.0.0","834991","p3cwg5ju6uz","antelope","no","{""technical_issues_question"":""no""}","","","","","","","","","","","",""
