"success","rt","trial_type","trial_index","plugin_version","time_elapsed","random_id","participant","technical_issues","response","stimulus","timeout","failed_images","failed_audio","failed_video","trial_phase","is_repeat","test_type","correct","old_image","new_image","correct_position"
"true","1299","fullscreen","0","null","2318","pabn3c4rwn7","Koala","-","","","","","","","","","","","","",""
"","2269","survey-text","1","2.0.0","4591","pabn3c4rwn7","Koala","-","{""participant_id"":""Koala""}","","","","","","","","","","","",""
"","11559","html-keyboard-response","2","2.0.0","16152","pabn3c4rwn7","Koala","-"," ","
      <p>In this experiment, a series of objects will be displayed.</p>
      <p>Try to memorize as much as possible about the objects.</p>
      <p>If the image is a <strong> repeat</strong>, press the SPACEBAR.</p>
      <p>Press any key to begin.</p>
    ","","","","","","","","","","",""
"true","","preload","3","2.0.0","16636","pabn3c4rwn7","Koala","-","","","false","[]","[]","[]","","","","","","",""
"","null","html-keyboard-response","4","2.0.0","17647","pabn3c4rwn7","Koala","-","null","<div style=""font-size:60px;"">+</div>","","","","","","","","","","",""
"","null","image-keyboard-response","5","2.0.0","20674","pabn3c4rwn7","Koala","-","null","stimuli/organized/EXEMPLAR/USED/Ecalculator2.jpg","","","","","memory","false","exemplar","true","","",""
"","null","html-keyboard-response","6","2.0.0","21678","pabn3c4rwn7","Koala","-","null","<div style=""font-size:60px; color:black;"">+</div>","","","","","","","","","","",""
"","null","image-keyboard-response","7","2.0.0","24685","pabn3c4rwn7","Koala","-","null","stimuli/organized/Novel pairs (tested)/n05bcactus.jpg","","","","","memory","false","novel","true","","",""
"","null","html-keyboard-response","8","2.0.0","25700","pabn3c4rwn7","Koala","-","null","<div style=""font-size:60px; color:black;"">+</div>","","","","","","","","","","",""
"","null","image-keyboard-response","9","2.0.0","28711","pabn3c4rwn7","Koala","-","null","stimuli/organized/EXEMPLAR/USED/Eframe2.jpg","","","","","memory","false","exemplar","true","","",""
"","null","html-keyboard-response","10","2.0.0","29725","pabn3c4rwn7","Koala","-","null","<div style=""font-size:60px; color:black;"">+</div>","","","","","","","","","","",""
"","null","image-keyboard-response","11","2.0.0","32735","pabn3c4rwn7","Koala","-","null","stimuli/organized/STATE/USED/Sbrushes2.jpg","","","","","memory","false","state","true","","",""
"","null","html-keyboard-response","12","2.0.0","33746","pabn3c4rwn7","Koala","-","null","<div style=""font-size:60px; color:black;"">+</div>","","","","","","","","","","",""
"","null","image-keyboard-response","13","2.0.0","36763","pabn3c4rwn7","Koala","-","null","stimuli/organized/STATE/USED/Sbabytoy2.JPG","","","","","memory","false","state","true","","",""
"","null","html-keyboard-response","14","2.0.0","37769","pabn3c4rwn7","Koala","-","null","<div style=""font-size:60px; color:black;"">+</div>","","","","","","","","","","",""
"","null","image-keyboard-response","15","2.0.0","40772","pabn3c4rwn7","Koala","-","null","stimuli/organized/STATE/USED/Sdresser1.jpg","","","","","memory","false","state","true","","",""
"","null","html-keyboard-response","16","2.0.0","41775","pabn3c4rwn7","Koala","-","null","<div style=""font-size:60px; color:black;"">+</div>","","","","","","","","","","",""
"","null","image-keyboard-response","17","2.0.0","44782","pabn3c4rwn7","Koala","-","null","stimuli/organized/STATE/USED/Scookies1.JPG","","","","","memory","false","state","true","","",""
"","null","html-keyboard-response","18","2.0.0","45788","pabn3c4rwn7","Koala","-","null","<div style=""font-size:60px; color:black;"">+</div>","","","","","","","","","","",""
"","null","image-keyboard-response","19","2.0.0","48802","pabn3c4rwn7","Koala","-","null","stimuli/organized/EXEMPLAR/USED/Econe2.jpg","","","","","memory","false","exemplar","true","","",""
"","null","html-keyboard-response","20","2.0.0","49805","pabn3c4rwn7","Koala","-","null","<div style=""font-size:60px; color:black;"">+</div>","","","","","","","","","","",""
"","null","image-keyboard-response","21","2.0.0","52817","pabn3c4rwn7","Koala","-","null","stimuli/organized/STATE/USED/Sphone1.JPG","","","","","memory","false","state","true","","",""
"","null","html-keyboard-response","22","2.0.0","53831","pabn3c4rwn7","Koala","-","null","<div style=""font-size:60px; color:black;"">+</div>","","","","","","","","","","",""
"","null","image-keyboard-response","23","2.0.0","56847","pabn3c4rwn7","Koala","-","null","stimuli/organized/EXEMPLAR/USED/Ebracelet2.jpg","","","","","memory","false","exemplar","true","","",""
"","null","html-keyboard-response","24","2.0.0","57861","pabn3c4rwn7","Koala","-","null","<div style=""font-size:60px; color:black;"">+</div>","","","","","","","","","","",""
"","null","image-keyboard-response","25","2.0.0","60869","pabn3c4rwn7","Koala","-","null","stimuli/organized/EXEMPLAR/USED/Ecabinet2.jpg","","","","","memory","false","exemplar","true","","",""
"","null","html-keyboard-response","26","2.0.0","61883","pabn3c4rwn7","Koala","-","null","<div style=""font-size:60px; color:black;"">+</div>","","","","","","","","","","",""
"","null","image-keyboard-response","27","2.0.0","64893","pabn3c4rwn7","Koala","-","null","stimuli/organized/STATE/USED/Sscanner2.JPG","","","","","memory","false","state","true","","",""
"","null","html-keyboard-response","28","2.0.0","65901","pabn3c4rwn7","Koala","-","null","<div style=""font-size:60px; color:black;"">+</div>","","","","","","","","","","",""
"","null","image-keyboard-response","29","2.0.0","68910","pabn3c4rwn7","Koala","-","null","stimuli/organized/Novel pairs (tested)/n20bshelf.jpg","","","","","memory","false","novel","true","","",""
"","null","html-keyboard-response","30","2.0.0","69927","pabn3c4rwn7","Koala","-","null","<div style=""font-size:60px; color:black;"">+</div>","","","","","","","","","","",""
"","null","image-keyboard-response","31","2.0.0","72941","pabn3c4rwn7","Koala","-","null","stimuli/organized/EXEMPLAR/USED/Ecar1.jpg","","","","","memory","false","exemplar","true","","",""
"","null","html-keyboard-response","32","2.0.0","73951","pabn3c4rwn7","Koala","-","null","<div style=""font-size:60px; color:black;"">+</div>","","","","","","","","","","",""
"","null","image-keyboard-response","33","2.0.0","76965","pabn3c4rwn7","Koala","-","null","stimuli/organized/Novel pairs (tested)/n19bhairbrush.jpg","","","","","memory","false","novel","true","","",""
"","null","html-keyboard-response","34","2.0.0","77970","pabn3c4rwn7","Koala","-","null","<div style=""font-size:60px; color:black;"">+</div>","","","","","","","","","","",""
"","null","image-keyboard-response","35","2.0.0","80985","pabn3c4rwn7","Koala","-","null","stimuli/organized/STATE/USED/Sdrum2.jpg","","","","","memory","false","state","true","","",""
"","null","html-keyboard-response","36","2.0.0","81997","pabn3c4rwn7","Koala","-","null","<div style=""font-size:60px; color:black;"">+</div>","","","","","","","","","","",""
"","null","image-keyboard-response","37","2.0.0","85001","pabn3c4rwn7","Koala","-","null","stimuli/organized/Novel pairs (tested)/n04bbandaid.jpg","","","","","memory","false","novel","true","","",""
"","null","html-keyboard-response","38","2.0.0","86014","pabn3c4rwn7","Koala","-","null","<div style=""font-size:60px; color:black;"">+</div>","","","","","","","","","","",""
"","null","image-keyboard-response","39","2.0.0","89016","pabn3c4rwn7","Koala","-","null","stimuli/organized/Novel pairs (tested)/n18apretzel.jpg","","","","","memory","false","novel","true","","",""
"","null","html-keyboard-response","40","2.0.0","90028","pabn3c4rwn7","Koala","-","null","<div style=""font-size:60px; color:black;"">+</div>","","","","","","","","","","",""
"","null","image-keyboard-response","41","2.0.0","93035","pabn3c4rwn7","Koala","-","null","stimuli/organized/STATE/USED/Slaptop1.JPG","","","","","memory","false","state","true","","",""
"","null","html-keyboard-response","42","2.0.0","94050","pabn3c4rwn7","Koala","-","null","<div style=""font-size:60px; color:black;"">+</div>","","","","","","","","","","",""
"","null","image-keyboard-response","43","2.0.0","97064","pabn3c4rwn7","Koala","-","null","stimuli/organized/STATE/USED/Shairbrush1.jpg","","","","","memory","false","state","true","","",""
"","null","html-keyboard-response","44","2.0.0","98072","pabn3c4rwn7","Koala","-","null","<div style=""font-size:60px; color:black;"">+</div>","","","","","","","","","","",""
"","null","image-keyboard-response","45","2.0.0","101077","pabn3c4rwn7","Koala","-","null","stimuli/organized/Novel pairs (tested)/n15aspiderweb.jpg","","","","","memory","false","novel","true","","",""
"","null","html-keyboard-response","46","2.0.0","102081","pabn3c4rwn7","Koala","-","null","<div style=""font-size:60px; color:black;"">+</div>","","","","","","","","","","",""
"","null","image-keyboard-response","47","2.0.0","105096","pabn3c4rwn7","Koala","-","null","stimuli/organized/EXEMPLAR/USED/Efan1.jpg","","","","","memory","false","exemplar","true","","",""
"","null","html-keyboard-response","48","2.0.0","106103","pabn3c4rwn7","Koala","-","null","<div style=""font-size:60px; color:black;"">+</div>","","","","","","","","","","",""
"","null","image-keyboard-response","49","2.0.0","109111","pabn3c4rwn7","Koala","-","null","stimuli/organized/STATE/USED/Sbox1.jpg","","","","","memory","false","state","true","","",""
"","null","html-keyboard-response","50","2.0.0","110126","pabn3c4rwn7","Koala","-","null","<div style=""font-size:60px; color:black;"">+</div>","","","","","","","","","","",""
"","null","image-keyboard-response","51","2.0.0","113134","pabn3c4rwn7","Koala","-","null","stimuli/organized/STATE/USED/Sfiretrucktoy1.jpg","","","","","memory","false","state","true","","",""
"","null","html-keyboard-response","52","2.0.0","114149","pabn3c4rwn7","Koala","-","null","<div style=""font-size:60px; color:black;"">+</div>","","","","","","","","","","",""
"","null","image-keyboard-response","53","2.0.0","117164","pabn3c4rwn7","Koala","-","null","stimuli/organized/EXEMPLAR/USED/Efeather1.jpg","","","","","memory","false","exemplar","true","","",""
"","null","html-keyboard-response","54","2.0.0","118181","pabn3c4rwn7","Koala","-","null","<div style=""font-size:60px; color:black;"">+</div>","","","","","","","","","","",""
"","null","image-keyboard-response","55","2.0.0","121187","pabn3c4rwn7","Koala","-","null","stimuli/organized/Novel pairs (tested)/n02bsafetypin.jpg","","","","","memory","false","novel","true","","",""
"","null","html-keyboard-response","56","2.0.0","122194","pabn3c4rwn7","Koala","-","null","<div style=""font-size:60px; color:black;"">+</div>","","","","","","","","","","",""
"","null","image-keyboard-response","57","2.0.0","125209","pabn3c4rwn7","Koala","-","null","stimuli/organized/STATE/USED/Seggs2.jpg","","","","","memory","false","state","true","","",""
"","null","html-keyboard-response","58","2.0.0","126224","pabn3c4rwn7","Koala","-","null","<div style=""font-size:60px; color:black;"">+</div>","","","","","","","","","","",""
"","null","image-keyboard-response","59","2.0.0","129236","pabn3c4rwn7","Koala","-","null","stimuli/organized/STATE/USED/Sdonut2.jpg","","","","","memory","false","state","true","","",""
"","null","html-keyboard-response","60","2.0.0","130244","pabn3c4rwn7","Koala","-","null","<div style=""font-size:60px; color:black;"">+</div>","","","","","","","","","","",""
"","null","image-keyboard-response","61","2.0.0","133247","pabn3c4rwn7","Koala","-","null","stimuli/organized/STATE/USED/Sgiftbag1.jpg","","","","","memory","false","state","true","","",""
"","null","html-keyboard-response","62","2.0.0","134252","pabn3c4rwn7","Koala","-","null","<div style=""font-size:60px; color:black;"">+</div>","","","","","","","","","","",""
"","null","image-keyboard-response","63","2.0.0","137261","pabn3c4rwn7","Koala","-","null","stimuli/organized/STATE/USED/Sgrinder1.jpg","","","","","memory","false","state","true","","",""
"","null","html-keyboard-response","64","2.0.0","138278","pabn3c4rwn7","Koala","-","null","<div style=""font-size:60px; color:black;"">+</div>","","","","","","","","","","",""
"","null","image-keyboard-response","65","2.0.0","141294","pabn3c4rwn7","Koala","-","null","stimuli/organized/Novel pairs (tested)/n08bpaperclip.jpg","","","","","memory","false","novel","true","","",""
"","null","html-keyboard-response","66","2.0.0","142301","pabn3c4rwn7","Koala","-","null","<div style=""font-size:60px; color:black;"">+</div>","","","","","","","","","","",""
"","null","image-keyboard-response","67","2.0.0","145306","pabn3c4rwn7","Koala","-","null","stimuli/organized/EXEMPLAR/USED/Egrapes1.jpg","","","","","memory","false","exemplar","true","","",""
"","null","html-keyboard-response","68","2.0.0","146319","pabn3c4rwn7","Koala","-","null","<div style=""font-size:60px; color:black;"">+</div>","","","","","","","","","","",""
"","null","image-keyboard-response","69","2.0.0","149334","pabn3c4rwn7","Koala","-","null","stimuli/organized/Novel pairs (tested)/n09bsaddle.jpg","","","","","memory","false","novel","true","","",""
"","null","html-keyboard-response","70","2.0.0","150341","pabn3c4rwn7","Koala","-","null","<div style=""font-size:60px; color:black;"">+</div>","","","","","","","","","","",""
"","null","image-keyboard-response","71","2.0.0","153352","pabn3c4rwn7","Koala","-","null","stimuli/organized/STATE/USED/Scrayons2.jpg","","","","","memory","false","state","true","","",""
"","null","html-keyboard-response","72","2.0.0","154361","pabn3c4rwn7","Koala","-","null","<div style=""font-size:60px; color:black;"">+</div>","","","","","","","","","","",""
"","null","image-keyboard-response","73","2.0.0","157376","pabn3c4rwn7","Koala","-","null","stimuli/organized/EXEMPLAR/USED/Echisel1.jpg","","","","","memory","false","exemplar","true","","",""
"","null","html-keyboard-response","74","2.0.0","158384","pabn3c4rwn7","Koala","-","null","<div style=""font-size:60px; color:black;"">+</div>","","","","","","","","","","",""
"","null","image-keyboard-response","75","2.0.0","161392","pabn3c4rwn7","Koala","-","null","stimuli/organized/STATE/USED/Sjuiceglass1.JPG","","","","","memory","false","state","true","","",""
"","null","html-keyboard-response","76","2.0.0","162398","pabn3c4rwn7","Koala","-","null","<div style=""font-size:60px; color:black;"">+</div>","","","","","","","","","","",""
"","null","image-keyboard-response","77","2.0.0","165403","pabn3c4rwn7","Koala","-","null","stimuli/organized/Novel pairs (tested)/n07apotato.jpg","","","","","memory","false","novel","true","","",""
"","null","html-keyboard-response","78","2.0.0","166415","pabn3c4rwn7","Koala","-","null","<div style=""font-size:60px; color:black;"">+</div>","","","","","","","","","","",""
"","null","image-keyboard-response","79","2.0.0","169430","pabn3c4rwn7","Koala","-","null","stimuli/organized/EXEMPLAR/USED/Egame1.jpg","","","","","memory","false","exemplar","true","","",""
"","null","html-keyboard-response","80","2.0.0","170443","pabn3c4rwn7","Koala","-","null","<div style=""font-size:60px; color:black;"">+</div>","","","","","","","","","","",""
"","null","image-keyboard-response","81","2.0.0","173454","pabn3c4rwn7","Koala","-","null","stimuli/organized/STATE/USED/Sabacus2.jpg","","","","","memory","false","state","true","","",""
"","null","html-keyboard-response","82","2.0.0","174462","pabn3c4rwn7","Koala","-","null","<div style=""font-size:60px; color:black;"">+</div>","","","","","","","","","","",""
"","null","image-keyboard-response","83","2.0.0","177467","pabn3c4rwn7","Koala","-","null","stimuli/organized/STATE/USED/Sbooks1.JPG","","","","","memory","false","state","true","","",""
"","null","html-keyboard-response","84","2.0.0","178483","pabn3c4rwn7","Koala","-","null","<div style=""font-size:60px; color:black;"">+</div>","","","","","","","","","","",""
"","null","image-keyboard-response","85","2.0.0","181497","pabn3c4rwn7","Koala","-","null","stimuli/organized/Novel pairs (tested)/n06blipstick.jpg","","","","","memory","false","novel","true","","",""
"","null","html-keyboard-response","86","2.0.0","182507","pabn3c4rwn7","Koala","-","null","<div style=""font-size:60px; color:black;"">+</div>","","","","","","","","","","",""
"","null","image-keyboard-response","87","2.0.0","185510","pabn3c4rwn7","Koala","-","null","stimuli/organized/EXEMPLAR/USED/Ebicycle2.jpg","","","","","memory","false","exemplar","true","","",""
"","null","html-keyboard-response","88","2.0.0","186524","pabn3c4rwn7","Koala","-","null","<div style=""font-size:60px; color:black;"">+</div>","","","","","","","","","","",""
"","null","image-keyboard-response","89","2.0.0","189528","pabn3c4rwn7","Koala","-","null","stimuli/organized/STATE/USED/Sdishes1.JPG","","","","","memory","false","state","true","","",""
"","null","html-keyboard-response","90","2.0.0","190542","pabn3c4rwn7","Koala","-","null","<div style=""font-size:60px; color:black;"">+</div>","","","","","","","","","","",""
"","null","image-keyboard-response","91","2.0.0","193559","pabn3c4rwn7","Koala","-","null","stimuli/organized/EXEMPLAR/USED/Eglobe2.jpg","","","","","memory","false","exemplar","true","","",""
"","null","html-keyboard-response","92","2.0.0","194572","pabn3c4rwn7","Koala","-","null","<div style=""font-size:60px; color:black;"">+</div>","","","","","","","","","","",""
"","null","image-keyboard-response","93","2.0.0","197577","pabn3c4rwn7","Koala","-","null","stimuli/organized/STATE/USED/Sbreadbox2.JPG","","","","","memory","false","state","true","","",""
"","null","html-keyboard-response","94","2.0.0","198579","pabn3c4rwn7","Koala","-","null","<div style=""font-size:60px; color:black;"">+</div>","","","","","","","","","","",""
"","null","image-keyboard-response","95","2.0.0","201586","pabn3c4rwn7","Koala","-","null","stimuli/organized/STATE/USED/Sgiftbox2.jpg","","","","","memory","false","state","true","","",""
"","null","html-keyboard-response","96","2.0.0","202601","pabn3c4rwn7","Koala","-","null","<div style=""font-size:60px; color:black;"">+</div>","","","","","","","","","","",""
"","null","image-keyboard-response","97","2.0.0","205610","pabn3c4rwn7","Koala","-","null","stimuli/organized/STATE/USED/Spie1.JPG","","","","","memory","false","state","true","","",""
"","null","html-keyboard-response","98","2.0.0","206626","pabn3c4rwn7","Koala","-","null","<div style=""font-size:60px; color:black;"">+</div>","","","","","","","","","","",""
"","null","image-keyboard-response","99","2.0.0","209643","pabn3c4rwn7","Koala","-","null","stimuli/organized/Novel pairs (tested)/n10bturkey.jpg","","","","","memory","false","novel","true","","",""
"","null","html-keyboard-response","100","2.0.0","210660","pabn3c4rwn7","Koala","-","null","<div style=""font-size:60px; color:black;"">+</div>","","","","","","","","","","",""
"","null","image-keyboard-response","101","2.0.0","213676","pabn3c4rwn7","Koala","-","null","stimuli/organized/STATE/USED/Scontainer2.JPG","","","","","memory","false","state","true","","",""
"","null","html-keyboard-response","102","2.0.0","214678","pabn3c4rwn7","Koala","-","null","<div style=""font-size:60px; color:black;"">+</div>","","","","","","","","","","",""
"","null","image-keyboard-response","103","2.0.0","217683","pabn3c4rwn7","Koala","-","null","stimuli/organized/EXEMPLAR/USED/Echocolatebar1.jpg","","","","","memory","false","exemplar","true","","",""
"","null","html-keyboard-response","104","2.0.0","218696","pabn3c4rwn7","Koala","-","null","<div style=""font-size:60px; color:black;"">+</div>","","","","","","","","","","",""
"","null","image-keyboard-response","105","2.0.0","221701","pabn3c4rwn7","Koala","-","null","stimuli/organized/STATE/USED/Sflask1.jpg","","","","","memory","false","state","true","","",""
"","null","html-keyboard-response","106","2.0.0","222716","pabn3c4rwn7","Koala","-","null","<div style=""font-size:60px; color:black;"">+</div>","","","","","","","","","","",""
"","null","image-keyboard-response","107","2.0.0","225726","pabn3c4rwn7","Koala","-","null","stimuli/organized/EXEMPLAR/USED/Ebell1.jpg","","","","","memory","false","exemplar","true","","",""
"","null","html-keyboard-response","108","2.0.0","226741","pabn3c4rwn7","Koala","-","null","<div style=""font-size:60px; color:black;"">+</div>","","","","","","","","","","",""
"","null","image-keyboard-response","109","2.0.0","229743","pabn3c4rwn7","Koala","-","null","stimuli/organized/EXEMPLAR/USED/Egoggles2.jpg","","","","","memory","false","exemplar","true","","",""
"","null","html-keyboard-response","110","2.0.0","230746","pabn3c4rwn7","Koala","-","null","<div style=""font-size:60px; color:black;"">+</div>","","","","","","","","","","",""
"","null","image-keyboard-response","111","2.0.0","233754","pabn3c4rwn7","Koala","-","null","stimuli/organized/Novel pairs (tested)/n14bgolfball.jpg","","","","","memory","false","novel","true","","",""
"","null","html-keyboard-response","112","2.0.0","234759","pabn3c4rwn7","Koala","-","null","<div style=""font-size:60px; color:black;"">+</div>","","","","","","","","","","",""
"","986","image-keyboard-response","113","2.0.0","237768","pabn3c4rwn7","Koala","-"," ","stimuli/organized/EXEMPLAR/USED/Econe2.jpg","","","","","memory","true","exemplar","true","","",""
"","null","html-keyboard-response","114","2.0.0","238775","pabn3c4rwn7","Koala","-","null","<div style=""font-size:60px; color:green;"">+</div>","","","","","","","","","","",""
"","null","image-keyboard-response","115","2.0.0","241777","pabn3c4rwn7","Koala","-","null","stimuli/organized/EXEMPLAR/USED/Ecamera1.jpg","","","","","memory","false","exemplar","true","","",""
"","null","html-keyboard-response","116","2.0.0","242780","pabn3c4rwn7","Koala","-","null","<div style=""font-size:60px; color:black;"">+</div>","","","","","","","","","","",""
"","null","image-keyboard-response","117","2.0.0","245789","pabn3c4rwn7","Koala","-","null","stimuli/organized/STATE/USED/Sbriefcase1.jpg","","","","","memory","false","state","true","","",""
"","null","html-keyboard-response","118","2.0.0","246800","pabn3c4rwn7","Koala","-","null","<div style=""font-size:60px; color:black;"">+</div>","","","","","","","","","","",""
"","null","image-keyboard-response","119","2.0.0","249807","pabn3c4rwn7","Koala","-","null","stimuli/organized/STATE/USED/Sdie2.jpg","","","","","memory","false","state","true","","",""
"","null","html-keyboard-response","120","2.0.0","250816","pabn3c4rwn7","Koala","-","null","<div style=""font-size:60px; color:black;"">+</div>","","","","","","","","","","",""
"","null","image-keyboard-response","121","2.0.0","253822","pabn3c4rwn7","Koala","-","null","stimuli/organized/EXEMPLAR/USED/Ebasket2.jpg","","","","","memory","false","exemplar","true","","",""
"","null","html-keyboard-response","122","2.0.0","254826","pabn3c4rwn7","Koala","-","null","<div style=""font-size:60px; color:black;"">+</div>","","","","","","","","","","",""
"","null","image-keyboard-response","123","2.0.0","257831","pabn3c4rwn7","Koala","-","null","stimuli/organized/STATE/USED/Schinesefoodbox1.jpg","","","","","memory","false","state","true","","",""
"","null","html-keyboard-response","124","2.0.0","258844","pabn3c4rwn7","Koala","-","null","<div style=""font-size:60px; color:black;"">+</div>","","","","","","","","","","",""
"","859","image-keyboard-response","125","2.0.0","261846","pabn3c4rwn7","Koala","-"," ","stimuli/organized/STATE/USED/Spie1.JPG","","","","","memory","true","state","true","","",""
"","null","html-keyboard-response","126","2.0.0","262852","pabn3c4rwn7","Koala","-","null","<div style=""font-size:60px; color:green;"">+</div>","","","","","","","","","","",""
"","null","image-keyboard-response","127","2.0.0","265858","pabn3c4rwn7","Koala","-","null","stimuli/organized/STATE/USED/Sbureau2.JPG","","","","","memory","false","state","true","","",""
"","null","html-keyboard-response","128","2.0.0","266871","pabn3c4rwn7","Koala","-","null","<div style=""font-size:60px; color:black;"">+</div>","","","","","","","","","","",""
"","null","image-keyboard-response","129","2.0.0","269877","pabn3c4rwn7","Koala","-","null","stimuli/organized/Novel pairs (tested)/n01aladybug.jpg","","","","","memory","false","novel","true","","",""
"","null","html-keyboard-response","130","2.0.0","270884","pabn3c4rwn7","Koala","-","null","<div style=""font-size:60px; color:black;"">+</div>","","","","","","","","","","",""
"","null","image-keyboard-response","131","2.0.0","273887","pabn3c4rwn7","Koala","-","null","stimuli/organized/Novel pairs (tested)/n16abananas.jpg","","","","","memory","false","novel","true","","",""
"","null","html-keyboard-response","132","2.0.0","274889","pabn3c4rwn7","Koala","-","null","<div style=""font-size:60px; color:black;"">+</div>","","","","","","","","","","",""
"","939","image-keyboard-response","133","2.0.0","277905","pabn3c4rwn7","Koala","-"," ","stimuli/organized/Novel pairs (tested)/n14bgolfball.jpg","","","","","memory","true","novel","true","","",""
"","null","html-keyboard-response","134","2.0.0","278916","pabn3c4rwn7","Koala","-","null","<div style=""font-size:60px; color:green;"">+</div>","","","","","","","","","","",""
"","null","image-keyboard-response","135","2.0.0","281932","pabn3c4rwn7","Koala","-","null","stimuli/organized/STATE/USED/Sbottles2.JPG","","","","","memory","false","state","true","","",""
"","null","html-keyboard-response","136","2.0.0","282949","pabn3c4rwn7","Koala","-","null","<div style=""font-size:60px; color:black;"">+</div>","","","","","","","","","","",""
"","null","image-keyboard-response","137","2.0.0","285960","pabn3c4rwn7","Koala","-","null","stimuli/organized/Novel pairs (tested)/n03acamel.jpg","","","","","memory","false","novel","true","","",""
"","null","html-keyboard-response","138","2.0.0","286969","pabn3c4rwn7","Koala","-","null","<div style=""font-size:60px; color:black;"">+</div>","","","","","","","","","","",""
"","null","image-keyboard-response","139","2.0.0","289979","pabn3c4rwn7","Koala","-","null","stimuli/organized/Novel pairs (tested)/n11bsock.jpg","","","","","memory","false","novel","true","","",""
"","null","html-keyboard-response","140","2.0.0","290985","pabn3c4rwn7","Koala","-","null","<div style=""font-size:60px; color:black;"">+</div>","","","","","","","","","","",""
"","null","image-keyboard-response","141","2.0.0","293987","pabn3c4rwn7","Koala","-","null","stimuli/organized/Novel pairs (tested)/n13bdustpan.jpg","","","","","memory","false","novel","true","","",""
"","null","html-keyboard-response","142","2.0.0","295005","pabn3c4rwn7","Koala","-","null","<div style=""font-size:60px; color:black;"">+</div>","","","","","","","","","","",""
"","null","image-keyboard-response","143","2.0.0","298020","pabn3c4rwn7","Koala","-","null","stimuli/organized/STATE/USED/Sbelt1.jpg","","","","","memory","false","state","true","","",""
"","null","html-keyboard-response","144","2.0.0","299034","pabn3c4rwn7","Koala","-","null","<div style=""font-size:60px; color:black;"">+</div>","","","","","","","","","","",""
"","831","image-keyboard-response","145","2.0.0","302045","pabn3c4rwn7","Koala","-"," ","stimuli/organized/STATE/USED/Sabacus2.jpg","","","","","memory","true","state","true","","",""
"","null","html-keyboard-response","146","2.0.0","303051","pabn3c4rwn7","Koala","-","null","<div style=""font-size:60px; color:green;"">+</div>","","","","","","","","","","",""
"","null","image-keyboard-response","147","2.0.0","306067","pabn3c4rwn7","Koala","-","null","stimuli/organized/STATE/USED/Sdryer1.jpg","","","","","memory","false","state","true","","",""
"","null","html-keyboard-response","148","2.0.0","307081","pabn3c4rwn7","Koala","-","null","<div style=""font-size:60px; color:black;"">+</div>","","","","","","","","","","",""
"","null","image-keyboard-response","149","2.0.0","310092","pabn3c4rwn7","Koala","-","null","stimuli/organized/EXEMPLAR/USED/Ebread2.jpg","","","","","memory","false","exemplar","true","","",""
"","null","html-keyboard-response","150","2.0.0","311108","pabn3c4rwn7","Koala","-","null","<div style=""font-size:60px; color:black;"">+</div>","","","","","","","","","","",""
"","null","image-keyboard-response","151","2.0.0","314113","pabn3c4rwn7","Koala","-","null","stimuli/organized/STATE/USED/Sscissors2.JPG","","","","","memory","false","state","true","","",""
"","null","html-keyboard-response","152","2.0.0","315118","pabn3c4rwn7","Koala","-","null","<div style=""font-size:60px; color:black;"">+</div>","","","","","","","","","","",""
"","null","image-keyboard-response","153","2.0.0","318123","pabn3c4rwn7","Koala","-","null","stimuli/organized/STATE/USED/Sapplesgreenbasket1.jpg","","","","","memory","false","state","true","","",""
"","null","html-keyboard-response","154","2.0.0","319132","pabn3c4rwn7","Koala","-","null","<div style=""font-size:60px; color:black;"">+</div>","","","","","","","","","","",""
"","null","image-keyboard-response","155","2.0.0","322140","pabn3c4rwn7","Koala","-","null","stimuli/organized/EXEMPLAR/USED/Edispenser1.jpg","","","","","memory","false","exemplar","true","","",""
"","null","html-keyboard-response","156","2.0.0","323147","pabn3c4rwn7","Koala","-","null","<div style=""font-size:60px; color:black;"">+</div>","","","","","","","","","","",""
"","null","image-keyboard-response","157","2.0.0","326158","pabn3c4rwn7","Koala","-","null","stimuli/organized/Novel pairs (tested)/n12atelescope.jpg","","","","","memory","false","novel","true","","",""
"","null","html-keyboard-response","158","2.0.0","327173","pabn3c4rwn7","Koala","-","null","<div style=""font-size:60px; color:black;"">+</div>","","","","","","","","","","",""
"","null","image-keyboard-response","159","2.0.0","330174","pabn3c4rwn7","Koala","-","null","stimuli/organized/Novel pairs (tested)/n17bweddingdress.jpg","","","","","memory","false","novel","true","","",""
"","null","html-keyboard-response","160","2.0.0","331189","pabn3c4rwn7","Koala","-","null","<div style=""font-size:60px; color:black;"">+</div>","","","","","","","","","","",""
"","null","image-keyboard-response","161","2.0.0","334205","pabn3c4rwn7","Koala","-","null","stimuli/organized/STATE/USED/Scoffeemaker1.JPG","","","","","memory","false","state","true","","",""
"","null","html-keyboard-response","162","2.0.0","335212","pabn3c4rwn7","Koala","-","null","<div style=""font-size:60px; color:black;"">+</div>","","","","","","","","","","",""
"","null","image-keyboard-response","163","2.0.0","338221","pabn3c4rwn7","Koala","-","null","stimuli/organized/STATE/USED/Spotpan1.JPG","","","","","memory","false","state","true","","",""
"","null","html-keyboard-response","164","2.0.0","339237","pabn3c4rwn7","Koala","-","null","<div style=""font-size:60px; color:black;"">+</div>","","","","","","","","","","",""
"","1231","image-keyboard-response","165","2.0.0","342251","pabn3c4rwn7","Koala","-"," ","stimuli/organized/STATE/USED/Scoffeemaker1.JPG","","","","","memory","true","state","true","","",""
"","5891","html-button-response","166","2.0.0","348144","pabn3c4rwn7","Koala","-","0","<p>You have completed the study phase.</p><p>Take a short break. Press the button below when you are ready to continue.</p>","","","","","","","","","","",""
"","4615","html-keyboard-response","167","2.0.0","352759","pabn3c4rwn7","Koala","-"," ","<p>You will now be shown pairs of images.</p><p>Select the image you remember seeing during the study phase.</p><p>Focus on accuracy, not speed.</p><p>Press any key to begin.</p>","","","","","","","","","","",""
"","1341","html-button-response","168","2.0.0","354101","pabn3c4rwn7","Koala","-","1","Which of these items did you see earlier?","","","","","test","","exemplar","true","stimuli/organized/EXEMPLAR/USED/Echocolatebar1.jpg","stimuli/organized/EXEMPLAR/USED/Echocolatebar2.jpg","1"
"","963","html-button-response","169","2.0.0","355066","pabn3c4rwn7","Koala","-","0","Which of these items did you see earlier?","","","","","test","","exemplar","true","stimuli/organized/EXEMPLAR/USED/Efan1.jpg","stimuli/organized/EXEMPLAR/USED/Efan2.jpg","0"
"","777","html-button-response","170","2.0.0","355844","pabn3c4rwn7","Koala","-","1","Which of these items did you see earlier?","","","","","test","","novel","true","stimuli/organized/Novel pairs (tested)/n01aladybug.jpg","stimuli/organized/Novel pairs (tested)/n01bcoin.jpg","1"
"","902","html-button-response","171","2.0.0","356747","pabn3c4rwn7","Koala","-","1","Which of these items did you see earlier?","","","","","test","","exemplar","true","stimuli/organized/EXEMPLAR/USED/Econe2.jpg","stimuli/organized/EXEMPLAR/USED/Econe1.jpg","1"
"","2782","html-button-response","172","2.0.0","359530","pabn3c4rwn7","Koala","-","1","Which of these items did you see earlier?","","","","","test","","exemplar","false","stimuli/organized/EXEMPLAR/USED/Eglobe2.jpg","stimuli/organized/EXEMPLAR/USED/Eglobe1.jpg","0"
"","831","html-button-response","173","2.0.0","360362","pabn3c4rwn7","Koala","-","1","Which of these items did you see earlier?","","","","","test","","novel","true","stimuli/organized/Novel pairs (tested)/n11bsock.jpg","stimuli/organized/Novel pairs (tested)/n11abatteries.jpg","1"
"","824","html-button-response","174","2.0.0","361186","pabn3c4rwn7","Koala","-","0","Which of these items did you see earlier?","","","","","test","","novel","true","stimuli/organized/Novel pairs (tested)/n16abananas.jpg","stimuli/organized/Novel pairs (tested)/n16bhammer.jpg","0"
"","1172","html-button-response","175","2.0.0","362360","pabn3c4rwn7","Koala","-","1","Which of these items did you see earlier?","","","","","test","","exemplar","true","stimuli/organized/EXEMPLAR/USED/Egame1.jpg","stimuli/organized/EXEMPLAR/USED/Egame2.jpg","1"
"","868","html-button-response","176","2.0.0","363229","pabn3c4rwn7","Koala","-","1","Which of these items did you see earlier?","","","","","test","","novel","true","stimuli/organized/Novel pairs (tested)/n12atelescope.jpg","stimuli/organized/Novel pairs (tested)/n12bwatch.jpg","1"
"","4130","html-button-response","177","2.0.0","367360","pabn3c4rwn7","Koala","-","0","Which of these items did you see earlier?","","","","","test","","state","true","stimuli/organized/STATE/USED/Shairbrush1.jpg","stimuli/organized/STATE/USED/Shairbrush2.jpg","0"
"","2920","html-button-response","178","2.0.0","370281","pabn3c4rwn7","Koala","-","0","Which of these items did you see earlier?","","","","","test","","state","true","stimuli/organized/STATE/USED/Spotpan1.JPG","stimuli/organized/STATE/USED/Spotpan2.JPG","0"
"","1229","html-button-response","179","2.0.0","371512","pabn3c4rwn7","Koala","-","1","Which of these items did you see earlier?","","","","","test","","state","true","stimuli/organized/STATE/USED/Sdishes1.JPG","stimuli/organized/STATE/USED/Sdishes2.JPG","1"
"","1733","html-button-response","180","2.0.0","373246","pabn3c4rwn7","Koala","-","1","Which of these items did you see earlier?","","","","","test","","state","true","stimuli/organized/STATE/USED/Sgiftbag1.jpg","stimuli/organized/STATE/USED/Sgiftbag2.jpg","1"
"","2767","html-button-response","181","2.0.0","376014","pabn3c4rwn7","Koala","-","0","Which of these items did you see earlier?","","","","","test","","exemplar","true","stimuli/organized/EXEMPLAR/USED/Echisel1.jpg","stimuli/organized/EXEMPLAR/USED/Echisel2.jpg","0"
"","1242","html-button-response","182","2.0.0","377258","pabn3c4rwn7","Koala","-","0","Which of these items did you see earlier?","","","","","test","","novel","true","stimuli/organized/Novel pairs (tested)/n18apretzel.jpg","stimuli/organized/Novel pairs (tested)/n18bsnail.jpg","0"
"","2253","html-button-response","183","2.0.0","379512","pabn3c4rwn7","Koala","-","1","Which of these items did you see earlier?","","","","","test","","state","true","stimuli/organized/STATE/USED/Sbottles2.JPG","stimuli/organized/STATE/USED/Sbottles1.JPG","1"
"","1415","html-button-response","184","2.0.0","380928","pabn3c4rwn7","Koala","-","1","Which of these items did you see earlier?","","","","","test","","state","true","stimuli/organized/STATE/USED/Sphone1.JPG","stimuli/organized/STATE/USED/Sphone2.JPG","1"
"","1196","html-button-response","185","2.0.0","382125","pabn3c4rwn7","Koala","-","1","Which of these items did you see earlier?","","","","","test","","state","true","stimuli/organized/STATE/USED/Sdonut2.jpg","stimuli/organized/STATE/USED/Sdonut1.jpg","1"
"","1243","html-button-response","186","2.0.0","383369","pabn3c4rwn7","Koala","-","0","Which of these items did you see earlier?","","","","","test","","novel","true","stimuli/organized/Novel pairs (tested)/n14bgolfball.jpg","stimuli/organized/Novel pairs (tested)/n14acigarette.jpg","0"
"","3322","html-button-response","187","2.0.0","386692","pabn3c4rwn7","Koala","-","1","Which of these items did you see earlier?","","","","","test","","novel","true","stimuli/organized/Novel pairs (tested)/n10bturkey.jpg","stimuli/organized/Novel pairs (tested)/n10awindmill.jpg","1"
"","917","html-button-response","188","2.0.0","387610","pabn3c4rwn7","Koala","-","1","Which of these items did you see earlier?","","","","","test","","novel","true","stimuli/organized/Novel pairs (tested)/n02bsafetypin.jpg","stimuli/organized/Novel pairs (tested)/n02aaxe.jpg","1"
"","1024","html-button-response","189","2.0.0","388635","pabn3c4rwn7","Koala","-","1","Which of these items did you see earlier?","","","","","test","","novel","true","stimuli/organized/Novel pairs (tested)/n20bshelf.jpg","stimuli/organized/Novel pairs (tested)/n20acarseat.jpg","1"
"","1250","html-button-response","190","2.0.0","389887","pabn3c4rwn7","Koala","-","0","Which of these items did you see earlier?","","","","","test","","state","true","stimuli/organized/STATE/USED/Sbabytoy2.JPG","stimuli/organized/STATE/USED/Sbabytoy1.JPG","0"
"","1581","html-button-response","191","2.0.0","391470","pabn3c4rwn7","Koala","-","0","Which of these items did you see earlier?","","","","","test","","exemplar","true","stimuli/organized/EXEMPLAR/USED/Ebasket2.jpg","stimuli/organized/EXEMPLAR/USED/Ebasket1.jpg","0"
"","1801","html-button-response","192","2.0.0","393272","pabn3c4rwn7","Koala","-","1","Which of these items did you see earlier?","","","","","test","","state","true","stimuli/organized/STATE/USED/Scrayons2.jpg","stimuli/organized/STATE/USED/Scrayons1.jpg","1"
"","885","html-button-response","193","2.0.0","394158","pabn3c4rwn7","Koala","-","0","Which of these items did you see earlier?","","","","","test","","state","true","stimuli/organized/STATE/USED/Sjuiceglass1.JPG","stimuli/organized/STATE/USED/Sjuiceglass2.JPG","0"
"","1267","html-button-response","194","2.0.0","395426","pabn3c4rwn7","Koala","-","0","Which of these items did you see earlier?","","","","","test","","state","true","stimuli/organized/STATE/USED/Sbrushes2.jpg","stimuli/organized/STATE/USED/Sbrushes1.jpg","0"
"","855","html-button-response","195","2.0.0","396282","pabn3c4rwn7","Koala","-","1","Which of these items did you see earlier?","","","","","test","","novel","true","stimuli/organized/Novel pairs (tested)/n08bpaperclip.jpg","stimuli/organized/Novel pairs (tested)/n08aoven.jpg","1"
"","1189","html-button-response","196","2.0.0","397472","pabn3c4rwn7","Koala","-","1","Which of these items did you see earlier?","","","","","test","","state","true","stimuli/organized/STATE/USED/Sdrum2.jpg","stimuli/organized/STATE/USED/Sdrum1.jpg","1"
"","2392","html-button-response","197","2.0.0","399866","pabn3c4rwn7","Koala","-","1","Which of these items did you see earlier?","","","","","test","","state","false","stimuli/organized/STATE/USED/Sgiftbox2.jpg","stimuli/organized/STATE/USED/Sgiftbox1.jpg","0"
"","879","html-button-response","198","2.0.0","400746","pabn3c4rwn7","Koala","-","0","Which of these items did you see earlier?","","","","","test","","state","true","stimuli/organized/STATE/USED/Sbooks1.JPG","stimuli/organized/STATE/USED/Sbooks2.JPG","0"
"","1195","html-button-response","199","2.0.0","401942","pabn3c4rwn7","Koala","-","1","Which of these items did you see earlier?","","","","","test","","exemplar","true","stimuli/organized/EXEMPLAR/USED/Ebread2.jpg","stimuli/organized/EXEMPLAR/USED/Ebread1.jpg","1"
"","1011","html-button-response","200","2.0.0","402954","pabn3c4rwn7","Koala","-","1","Which of these items did you see earlier?","","","","","test","","state","true","stimuli/organized/STATE/USED/Slaptop1.JPG","stimuli/organized/STATE/USED/Slaptop2.JPG","1"
"","979","html-button-response","201","2.0.0","403934","pabn3c4rwn7","Koala","-","0","Which of these items did you see earlier?","","","","","test","","state","true","stimuli/organized/STATE/USED/Sdryer1.jpg","stimuli/organized/STATE/USED/Sdryer2.jpg","0"
"","1079","html-button-response","202","2.0.0","405013","pabn3c4rwn7","Koala","-","0","Which of these items did you see earlier?","","","","","test","","state","true","stimuli/organized/STATE/USED/Scookies1.JPG","stimuli/organized/STATE/USED/Scookies2.JPG","0"
"","1291","html-button-response","203","2.0.0","406306","pabn3c4rwn7","Koala","-","0","Which of these items did you see earlier?","","","","","test","","state","true","stimuli/organized/STATE/USED/Sdresser1.jpg","stimuli/organized/STATE/USED/Sdresser2.jpg","0"
"","1437","html-button-response","204","2.0.0","407744","pabn3c4rwn7","Koala","-","0","Which of these items did you see earlier?","","","","","test","","exemplar","true","stimuli/organized/EXEMPLAR/USED/Ecalculator2.jpg","stimuli/organized/EXEMPLAR/USED/Ecalculator1.jpg","0"
"","1057","html-button-response","205","2.0.0","408802","pabn3c4rwn7","Koala","-","1","Which of these items did you see earlier?","","","","","test","","exemplar","true","stimuli/organized/EXEMPLAR/USED/Ecabinet2.jpg","stimuli/organized/EXEMPLAR/USED/Ecabinet1.jpg","1"
"","1234","html-button-response","206","2.0.0","410037","pabn3c4rwn7","Koala","-","0","Which of these items did you see earlier?","","","","","test","","exemplar","true","stimuli/organized/EXEMPLAR/USED/Egoggles2.jpg","stimuli/organized/EXEMPLAR/USED/Egoggles1.jpg","0"
"","1004","html-button-response","207","2.0.0","411042","pabn3c4rwn7","Koala","-","0","Which of these items did you see earlier?","","","","","test","","state","true","stimuli/organized/STATE/USED/Sbox1.jpg","stimuli/organized/STATE/USED/Sbox2.jpg","0"
"","1204","html-button-response","208","2.0.0","412248","pabn3c4rwn7","Koala","-","1","Which of these items did you see earlier?","","","","","test","","novel","true","stimuli/organized/Novel pairs (tested)/n09bsaddle.jpg","stimuli/organized/Novel pairs (tested)/n09apenguin.jpg","1"
"","930","html-button-response","209","2.0.0","413179","pabn3c4rwn7","Koala","-","0","Which of these items did you see earlier?","","","","","test","","novel","true","stimuli/organized/Novel pairs (tested)/n06blipstick.jpg","stimuli/organized/Novel pairs (tested)/n06acane.jpg","0"
"","1235","html-button-response","210","2.0.0","414416","pabn3c4rwn7","Koala","-","1","Which of these items did you see earlier?","","","","","test","","exemplar","true","stimuli/organized/EXEMPLAR/USED/Eframe2.jpg","stimuli/organized/EXEMPLAR/USED/Eframe1.jpg","1"
"","1198","html-button-response","211","2.0.0","415615","pabn3c4rwn7","Koala","-","1","Which of these items did you see earlier?","","","","","test","","state","true","stimuli/organized/STATE/USED/Sbelt1.jpg","stimuli/organized/STATE/USED/Sbelt2.jpg","1"
"","1748","html-button-response","212","2.0.0","417364","pabn3c4rwn7","Koala","-","0","Which of these items did you see earlier?","","","","","test","","novel","true","stimuli/organized/Novel pairs (tested)/n17bweddingdress.jpg","stimuli/organized/Novel pairs (tested)/n17avendingmachine.jpg","0"
"","1057","html-button-response","213","2.0.0","418422","pabn3c4rwn7","Koala","-","0","Which of these items did you see earlier?","","","","","test","","state","true","stimuli/organized/STATE/USED/Scoffeemaker1.JPG","stimuli/organized/STATE/USED/Scoffeemaker2.JPG","0"
"","1735","html-button-response","214","2.0.0","420158","pabn3c4rwn7","Koala","-","1","Which of these items did you see earlier?","","","","","test","","exemplar","true","stimuli/organized/EXEMPLAR/USED/Ecamera1.jpg","stimuli/organized/EXEMPLAR/USED/Ecamera2.jpg","1"
"","707","html-button-response","215","2.0.0","420866","pabn3c4rwn7","Koala","-","0","Which of these items did you see earlier?","","","","","test","","state","true","stimuli/organized/STATE/USED/Spie1.JPG","stimuli/organized/STATE/USED/Spie2.JPG","0"
"","1313","html-button-response","216","2.0.0","422179","pabn3c4rwn7","Koala","-","0","Which of these items did you see earlier?","","","","","test","","state","true","stimuli/organized/STATE/USED/Sapplesgreenbasket1.jpg","stimuli/organized/STATE/USED/Sapplesgreenbasket2.jpg","0"
"","831","html-button-response","217","2.0.0","423011","pabn3c4rwn7","Koala","-","1","Which of these items did you see earlier?","","","","","test","","exemplar","true","stimuli/organized/EXEMPLAR/USED/Ecar1.jpg","stimuli/organized/EXEMPLAR/USED/Ecar2.jpg","1"
"","1415","html-button-response","218","2.0.0","424428","pabn3c4rwn7","Koala","-","1","Which of these items did you see earlier?","","","","","test","","state","true","stimuli/organized/STATE/USED/Sgrinder1.jpg","stimuli/organized/STATE/USED/Sgrinder2.jpg","1"
"","1328","html-button-response","219","2.0.0","425758","pabn3c4rwn7","Koala","-","1","Which of these items did you see earlier?","","","","","test","","state","true","stimuli/organized/STATE/USED/Sscissors2.JPG","stimuli/organized/STATE/USED/Sscissors1.JPG","1"
"","1703","html-button-response","220","2.0.0","427461","pabn3c4rwn7","Koala","-","1","Which of these items did you see earlier?","","","","","test","","exemplar","true","stimuli/organized/EXEMPLAR/USED/Ebicycle2.jpg","stimuli/organized/EXEMPLAR/USED/Ebicycle1.jpg","1"
"","4361","html-button-response","221","2.0.0","431824","pabn3c4rwn7","Koala","-","0","Which of these items did you see earlier?","","","","","test","","state","false","stimuli/organized/STATE/USED/Schinesefoodbox1.jpg","stimuli/organized/STATE/USED/Schinesefoodbox2.jpg","1"
"","2596","html-button-response","222","2.0.0","434421","pabn3c4rwn7","Koala","-","1","Which of these items did you see earlier?","","","","","test","","state","true","stimuli/organized/STATE/USED/Sbriefcase1.jpg","stimuli/organized/STATE/USED/Sbriefcase2.jpg","1"
"","3359","html-button-response","223","2.0.0","437781","pabn3c4rwn7","Koala","-","0","Which of these items did you see earlier?","","","","","test","","state","false","stimuli/organized/STATE/USED/Sfiretrucktoy1.jpg","stimuli/organized/STATE/USED/Sfiretrucktoy2.jpg","1"
"","987","html-button-response","224","2.0.0","438770","pabn3c4rwn7","Koala","-","0","Which of these items did you see earlier?","","","","","test","","exemplar","true","stimuli/organized/EXEMPLAR/USED/Efeather1.jpg","stimuli/organized/EXEMPLAR/USED/Efeather2.jpg","0"
"","1789","html-button-response","225","2.0.0","440560","pabn3c4rwn7","Koala","-","1","Which of these items did you see earlier?","","","","","test","","state","true","stimuli/organized/STATE/USED/Sbureau2.JPG","stimuli/organized/STATE/USED/Sbureau1.JPG","1"
"","1009","html-button-response","226","2.0.0","441569","pabn3c4rwn7","Koala","-","0","Which of these items did you see earlier?","","","","","test","","novel","true","stimuli/organized/Novel pairs (tested)/n13bdustpan.jpg","stimuli/organized/Novel pairs (tested)/n13ablueberries.jpg","0"
"","979","html-button-response","227","2.0.0","442550","pabn3c4rwn7","Koala","-","1","Which of these items did you see earlier?","","","","","test","","state","true","stimuli/organized/STATE/USED/Sscanner2.JPG","stimuli/organized/STATE/USED/Sscanner1.JPG","1"
"","1119","html-button-response","228","2.0.0","443670","pabn3c4rwn7","Koala","-","0","Which of these items did you see earlier?","","","","","test","","state","true","stimuli/organized/STATE/USED/Sflask1.jpg","stimuli/organized/STATE/USED/Sflask2.jpg","0"
"","893","html-button-response","229","2.0.0","444564","pabn3c4rwn7","Koala","-","1","Which of these items did you see earlier?","","","","","test","","novel","true","stimuli/organized/Novel pairs (tested)/n15aspiderweb.jpg","stimuli/organized/Novel pairs (tested)/n15bfootball.jpg","1"
"","2613","html-button-response","230","2.0.0","447178","pabn3c4rwn7","Koala","-","0","Which of these items did you see earlier?","","","","","test","","state","true","stimuli/organized/STATE/USED/Scontainer2.JPG","stimuli/organized/STATE/USED/Scontainer1.JPG","0"
"","1212","html-button-response","231","2.0.0","448391","pabn3c4rwn7","Koala","-","1","Which of these items did you see earlier?","","","","","test","","exemplar","true","stimuli/organized/EXEMPLAR/USED/Egrapes1.jpg","stimuli/organized/EXEMPLAR/USED/Egrapes2.jpg","1"
"","863","html-button-response","232","2.0.0","449255","pabn3c4rwn7","Koala","-","0","Which of these items did you see earlier?","","","","","test","","novel","true","stimuli/organized/Novel pairs (tested)/n04bbandaid.jpg","stimuli/organized/Novel pairs (tested)/n04ayarn.jpg","0"
"","886","html-button-response","233","2.0.0","450142","pabn3c4rwn7","Koala","-","1","Which of these items did you see earlier?","","","","","test","","exemplar","true","stimuli/organized/EXEMPLAR/USED/Edispenser1.jpg","stimuli/organized/EXEMPLAR/USED/Edispenser2.jpg","1"
"","1189","html-button-response","234","2.0.0","451332","pabn3c4rwn7","Koala","-","1","Which of these items did you see earlier?","","","","","test","","state","true","stimuli/organized/STATE/USED/Sbreadbox2.JPG","stimuli/organized/STATE/USED/Sbreadbox1.JPG","1"
"","1841","html-button-response","235","2.0.0","453174","pabn3c4rwn7","Koala","-","1","Which of these items did you see earlier?","","","","","test","","state","true","stimuli/organized/STATE/USED/Seggs2.jpg","stimuli/organized/STATE/USED/Seggs1.jpg","1"
"","1517","html-button-response","236","2.0.0","454692","pabn3c4rwn7","Koala","-","0","Which of these items did you see earlier?","","","","","test","","exemplar","false","stimuli/organized/EXEMPLAR/USED/Ebell1.jpg","stimuli/organized/EXEMPLAR/USED/Ebell2.jpg","1"
"","1041","html-button-response","237","2.0.0","455734","pabn3c4rwn7","Koala","-","0","Which of these items did you see earlier?","","","","","test","","novel","true","stimuli/organized/Novel pairs (tested)/n07apotato.jpg","stimuli/organized/Novel pairs (tested)/n07bswimmingpool.jpg","0"
"","1057","html-button-response","238","2.0.0","456791","pabn3c4rwn7","Koala","-","1","Which of these items did you see earlier?","","","","","test","","novel","true","stimuli/organized/Novel pairs (tested)/n03acamel.jpg","stimuli/organized/Novel pairs (tested)/n03bbagel.jpg","1"
"","831","html-button-response","239","2.0.0","457623","pabn3c4rwn7","Koala","-","0","Which of these items did you see earlier?","","","","","test","","novel","true","stimuli/organized/Novel pairs (tested)/n05bcactus.jpg","stimuli/organized/Novel pairs (tested)/n05abarrel.jpg","0"
"","902","html-button-response","240","2.0.0","458526","pabn3c4rwn7","Koala","-","1","Which of these items did you see earlier?","","","","","test","","exemplar","true","stimuli/organized/EXEMPLAR/USED/Ebracelet2.jpg","stimuli/organized/EXEMPLAR/USED/Ebracelet1.jpg","1"
"","2433","html-button-response","241","2.0.0","460960","pabn3c4rwn7","Koala","-","0","Which of these items did you see earlier?","","","","","test","","novel","true","stimuli/organized/Novel pairs (tested)/n19bhairbrush.jpg","stimuli/organized/Novel pairs (tested)/n19apickle.jpg","0"
"","1656","html-button-response","242","2.0.0","462616","pabn3c4rwn7","Koala","-","1","Which of these items did you see earlier?","","","","","test","","state","true","stimuli/organized/STATE/USED/Sabacus2.jpg","stimuli/organized/STATE/USED/Sabacus1.jpg","1"
"","2300","html-button-response","243","2.0.0","464918","pabn3c4rwn7","Koala","-","0","Which of these items did you see earlier?","","","","","test","","state","false","stimuli/organized/STATE/USED/Sdie2.jpg","stimuli/organized/STATE/USED/Sdie1.jpg","1"
"","7441","survey-html-form","244","2.0.0","472360","pabn3c4rwn7","Koala","-","{""age"":""21"",""gender"":""male"",""memory_experiment_experience"":""yes""}","","","","","","","","","","","",""
"","11258","survey-text","245","2.0.0","483621","pabn3c4rwn7","Koala","-","{""task_guess"":""noticing small changed within anything""}","","","","","","","","","","","",""
"","1589","survey-text","246","2.0.0","485212","pabn3c4rwn7","Koala","-","{""technical_issues_question"":""-""}","","","","","","","","","","","",""
