"success","rt","trial_type","trial_index","plugin_version","time_elapsed","random_id","participant","technical_issues","response","stimulus","timeout","failed_images","failed_audio","failed_video","trial_phase","is_repeat","test_type","correct","old_image","new_image","correct_position"
"true","1779","fullscreen","0","null","2784","pcxoro96btl","goat","","","","","","","","","","","","","",""
"","2059","survey-text","1","2.0.0","4848","pcxoro96btl","goat","","{""participant_id"":""goat""}","","","","","","","","","","","",""
"","23483","html-keyboard-response","2","2.0.0","28333","pcxoro96btl","goat","","Enter","
      <p>In this experiment, a series of objects will be displayed.</p>
      <p>Try to memorize as much as possible about the objects.</p>
      <p>If the image is a <strong> repeat</strong>, press the SPACEBAR.</p>
      <p>Press any key to begin.</p>
    ","","","","","","","","","","",""
"true","","preload","3","2.0.0","28754","pcxoro96btl","goat","","","","false","[]","[]","[]","","","","","","",""
"","null","html-keyboard-response","4","2.0.0","29757","pcxoro96btl","goat","","null","<div style=""font-size:60px;"">+</div>","","","","","","","","","","",""
"","null","image-keyboard-response","5","2.0.0","32762","pcxoro96btl","goat","","null","stimuli/organized/STATE/USED/Seggs1.jpg","","","","","memory","false","state","true","","",""
"","null","html-keyboard-response","6","2.0.0","33765","pcxoro96btl","goat","","null","<div style=""font-size:60px; color:black;"">+</div>","","","","","","","","","","",""
"","null","image-keyboard-response","7","2.0.0","36769","pcxoro96btl","goat","","null","stimuli/organized/STATE/USED/Sbelt2.jpg","","","","","memory","false","state","true","","",""
"","null","html-keyboard-response","8","2.0.0","37772","pcxoro96btl","goat","","null","<div style=""font-size:60px; color:black;"">+</div>","","","","","","","","","","",""
"","null","image-keyboard-response","9","2.0.0","40776","pcxoro96btl","goat","","null","stimuli/organized/STATE/USED/Sscissors1.JPG","","","","","memory","false","state","true","","",""
"","null","html-keyboard-response","10","2.0.0","41778","pcxoro96btl","goat","","null","<div style=""font-size:60px; color:black;"">+</div>","","","","","","","","","","",""
"","null","image-keyboard-response","11","2.0.0","44781","pcxoro96btl","goat","","null","stimuli/organized/STATE/USED/Slaptop2.JPG","","","","","memory","false","state","true","","",""
"","null","html-keyboard-response","12","2.0.0","45783","pcxoro96btl","goat","","null","<div style=""font-size:60px; color:black;"">+</div>","","","","","","","","","","",""
"","null","image-keyboard-response","13","2.0.0","48787","pcxoro96btl","goat","","null","stimuli/organized/STATE/USED/Spie2.JPG","","","","","memory","false","state","true","","",""
"","null","html-keyboard-response","14","2.0.0","49790","pcxoro96btl","goat","","null","<div style=""font-size:60px; color:black;"">+</div>","","","","","","","","","","",""
"","null","image-keyboard-response","15","2.0.0","52792","pcxoro96btl","goat","","null","stimuli/organized/EXEMPLAR/USED/Ebread2.jpg","","","","","memory","false","exemplar","true","","",""
"","null","html-keyboard-response","16","2.0.0","53795","pcxoro96btl","goat","","null","<div style=""font-size:60px; color:black;"">+</div>","","","","","","","","","","",""
"","null","image-keyboard-response","17","2.0.0","56798","pcxoro96btl","goat","","null","stimuli/organized/Novel pairs (tested)/n09apenguin.jpg","","","","","memory","false","novel","true","","",""
"","null","html-keyboard-response","18","2.0.0","57801","pcxoro96btl","goat","","null","<div style=""font-size:60px; color:black;"">+</div>","","","","","","","","","","",""
"","null","image-keyboard-response","19","2.0.0","60804","pcxoro96btl","goat","","null","stimuli/organized/STATE/USED/Scookies2.JPG","","","","","memory","false","state","true","","",""
"","null","html-keyboard-response","20","2.0.0","61807","pcxoro96btl","goat","","null","<div style=""font-size:60px; color:black;"">+</div>","","","","","","","","","","",""
"","null","image-keyboard-response","21","2.0.0","64810","pcxoro96btl","goat","","null","stimuli/organized/STATE/USED/Sdie1.jpg","","","","","memory","false","state","true","","",""
"","null","html-keyboard-response","22","2.0.0","65811","pcxoro96btl","goat","","null","<div style=""font-size:60px; color:black;"">+</div>","","","","","","","","","","",""
"","null","image-keyboard-response","23","2.0.0","68814","pcxoro96btl","goat","","null","stimuli/organized/STATE/USED/Sgrinder2.jpg","","","","","memory","false","state","true","","",""
"","null","html-keyboard-response","24","2.0.0","69817","pcxoro96btl","goat","","null","<div style=""font-size:60px; color:black;"">+</div>","","","","","","","","","","",""
"","null","image-keyboard-response","25","2.0.0","72821","pcxoro96btl","goat","","null","stimuli/organized/STATE/USED/Spotpan1.JPG","","","","","memory","false","state","true","","",""
"","null","html-keyboard-response","26","2.0.0","73824","pcxoro96btl","goat","","null","<div style=""font-size:60px; color:black;"">+</div>","","","","","","","","","","",""
"","null","image-keyboard-response","27","2.0.0","76826","pcxoro96btl","goat","","null","stimuli/organized/Novel pairs (tested)/n08bpaperclip.jpg","","","","","memory","false","novel","true","","",""
"","null","html-keyboard-response","28","2.0.0","77829","pcxoro96btl","goat","","null","<div style=""font-size:60px; color:black;"">+</div>","","","","","","","","","","",""
"","null","image-keyboard-response","29","2.0.0","80831","pcxoro96btl","goat","","null","stimuli/organized/Novel pairs (tested)/n16bhammer.jpg","","","","","memory","false","novel","true","","",""
"","null","html-keyboard-response","30","2.0.0","81834","pcxoro96btl","goat","","null","<div style=""font-size:60px; color:black;"">+</div>","","","","","","","","","","",""
"","null","image-keyboard-response","31","2.0.0","84836","pcxoro96btl","goat","","null","stimuli/organized/STATE/USED/Sbooks1.JPG","","","","","memory","false","state","true","","",""
"","null","html-keyboard-response","32","2.0.0","85838","pcxoro96btl","goat","","null","<div style=""font-size:60px; color:black;"">+</div>","","","","","","","","","","",""
"","null","image-keyboard-response","33","2.0.0","88841","pcxoro96btl","goat","","null","stimuli/organized/EXEMPLAR/USED/Ebasket1.jpg","","","","","memory","false","exemplar","true","","",""
"","null","html-keyboard-response","34","2.0.0","89844","pcxoro96btl","goat","","null","<div style=""font-size:60px; color:black;"">+</div>","","","","","","","","","","",""
"","null","image-keyboard-response","35","2.0.0","92847","pcxoro96btl","goat","","null","stimuli/organized/EXEMPLAR/USED/Echocolatebar2.jpg","","","","","memory","false","exemplar","true","","",""
"","null","html-keyboard-response","36","2.0.0","93849","pcxoro96btl","goat","","null","<div style=""font-size:60px; color:black;"">+</div>","","","","","","","","","","",""
"","null","image-keyboard-response","37","2.0.0","96853","pcxoro96btl","goat","","null","stimuli/organized/EXEMPLAR/USED/Ecabinet2.jpg","","","","","memory","false","exemplar","true","","",""
"","null","html-keyboard-response","38","2.0.0","97855","pcxoro96btl","goat","","null","<div style=""font-size:60px; color:black;"">+</div>","","","","","","","","","","",""
"","null","image-keyboard-response","39","2.0.0","100859","pcxoro96btl","goat","","null","stimuli/organized/STATE/USED/Sgiftbox1.jpg","","","","","memory","false","state","true","","",""
"","null","html-keyboard-response","40","2.0.0","101861","pcxoro96btl","goat","","null","<div style=""font-size:60px; color:black;"">+</div>","","","","","","","","","","",""
"","null","image-keyboard-response","41","2.0.0","104864","pcxoro96btl","goat","","null","stimuli/organized/STATE/USED/Sdrum2.jpg","","","","","memory","false","state","true","","",""
"","null","html-keyboard-response","42","2.0.0","105866","pcxoro96btl","goat","","null","<div style=""font-size:60px; color:black;"">+</div>","","","","","","","","","","",""
"","null","image-keyboard-response","43","2.0.0","108869","pcxoro96btl","goat","","null","stimuli/organized/Novel pairs (tested)/n15aspiderweb.jpg","","","","","memory","false","novel","true","","",""
"","null","html-keyboard-response","44","2.0.0","109871","pcxoro96btl","goat","","null","<div style=""font-size:60px; color:black;"">+</div>","","","","","","","","","","",""
"","null","image-keyboard-response","45","2.0.0","112873","pcxoro96btl","goat","","null","stimuli/organized/EXEMPLAR/USED/Egrapes1.jpg","","","","","memory","false","exemplar","true","","",""
"","null","html-keyboard-response","46","2.0.0","113875","pcxoro96btl","goat","","null","<div style=""font-size:60px; color:black;"">+</div>","","","","","","","","","","",""
"","null","image-keyboard-response","47","2.0.0","116878","pcxoro96btl","goat","","null","stimuli/organized/Novel pairs (tested)/n13bdustpan.jpg","","","","","memory","false","novel","true","","",""
"","null","html-keyboard-response","48","2.0.0","117880","pcxoro96btl","goat","","null","<div style=""font-size:60px; color:black;"">+</div>","","","","","","","","","","",""
"","null","image-keyboard-response","49","2.0.0","120883","pcxoro96btl","goat","","null","stimuli/organized/Novel pairs (tested)/n03bbagel.jpg","","","","","memory","false","novel","true","","",""
"","null","html-keyboard-response","50","2.0.0","121885","pcxoro96btl","goat","","null","<div style=""font-size:60px; color:black;"">+</div>","","","","","","","","","","",""
"","null","image-keyboard-response","51","2.0.0","124888","pcxoro96btl","goat","","null","stimuli/organized/Novel pairs (tested)/n10awindmill.jpg","","","","","memory","false","novel","true","","",""
"","null","html-keyboard-response","52","2.0.0","125891","pcxoro96btl","goat","","null","<div style=""font-size:60px; color:black;"">+</div>","","","","","","","","","","",""
"","null","image-keyboard-response","53","2.0.0","128894","pcxoro96btl","goat","","null","stimuli/organized/EXEMPLAR/USED/Ecar1.jpg","","","","","memory","false","exemplar","true","","",""
"","null","html-keyboard-response","54","2.0.0","129896","pcxoro96btl","goat","","null","<div style=""font-size:60px; color:black;"">+</div>","","","","","","","","","","",""
"","null","image-keyboard-response","55","2.0.0","132899","pcxoro96btl","goat","","null","stimuli/organized/Novel pairs (tested)/n05bcactus.jpg","","","","","memory","false","novel","true","","",""
"","null","html-keyboard-response","56","2.0.0","133902","pcxoro96btl","goat","","null","<div style=""font-size:60px; color:black;"">+</div>","","","","","","","","","","",""
"","null","image-keyboard-response","57","2.0.0","136905","pcxoro96btl","goat","","null","stimuli/organized/EXEMPLAR/USED/Ebracelet1.jpg","","","","","memory","false","exemplar","true","","",""
"","null","html-keyboard-response","58","2.0.0","137906","pcxoro96btl","goat","","null","<div style=""font-size:60px; color:black;"">+</div>","","","","","","","","","","",""
"","null","image-keyboard-response","59","2.0.0","140909","pcxoro96btl","goat","","null","stimuli/organized/STATE/USED/Sflask2.jpg","","","","","memory","false","state","true","","",""
"","null","html-keyboard-response","60","2.0.0","141911","pcxoro96btl","goat","","null","<div style=""font-size:60px; color:black;"">+</div>","","","","","","","","","","",""
"","null","image-keyboard-response","61","2.0.0","144914","pcxoro96btl","goat","","null","stimuli/organized/STATE/USED/Sbox2.jpg","","","","","memory","false","state","true","","",""
"","null","html-keyboard-response","62","2.0.0","145916","pcxoro96btl","goat","","null","<div style=""font-size:60px; color:black;"">+</div>","","","","","","","","","","",""
"","null","image-keyboard-response","63","2.0.0","148919","pcxoro96btl","goat","","null","stimuli/organized/Novel pairs (tested)/n20acarseat.jpg","","","","","memory","false","novel","true","","",""
"","null","html-keyboard-response","64","2.0.0","149921","pcxoro96btl","goat","","null","<div style=""font-size:60px; color:black;"">+</div>","","","","","","","","","","",""
"","null","image-keyboard-response","65","2.0.0","152924","pcxoro96btl","goat","","null","stimuli/organized/EXEMPLAR/USED/Echisel1.jpg","","","","","memory","false","exemplar","true","","",""
"","null","html-keyboard-response","66","2.0.0","153926","pcxoro96btl","goat","","null","<div style=""font-size:60px; color:black;"">+</div>","","","","","","","","","","",""
"","null","image-keyboard-response","67","2.0.0","156929","pcxoro96btl","goat","","null","stimuli/organized/STATE/USED/Sjuiceglass1.JPG","","","","","memory","false","state","true","","",""
"","null","html-keyboard-response","68","2.0.0","157931","pcxoro96btl","goat","","null","<div style=""font-size:60px; color:black;"">+</div>","","","","","","","","","","",""
"","null","image-keyboard-response","69","2.0.0","160934","pcxoro96btl","goat","","null","stimuli/organized/EXEMPLAR/USED/Ebell2.jpg","","","","","memory","false","exemplar","true","","",""
"","null","html-keyboard-response","70","2.0.0","161937","pcxoro96btl","goat","","null","<div style=""font-size:60px; color:black;"">+</div>","","","","","","","","","","",""
"","null","image-keyboard-response","71","2.0.0","164940","pcxoro96btl","goat","","null","stimuli/organized/STATE/USED/Sbriefcase1.jpg","","","","","memory","false","state","true","","",""
"","null","html-keyboard-response","72","2.0.0","165942","pcxoro96btl","goat","","null","<div style=""font-size:60px; color:black;"">+</div>","","","","","","","","","","",""
"","null","image-keyboard-response","73","2.0.0","168945","pcxoro96btl","goat","","null","stimuli/organized/STATE/USED/Scrayons2.jpg","","","","","memory","false","state","true","","",""
"","null","html-keyboard-response","74","2.0.0","169946","pcxoro96btl","goat","","null","<div style=""font-size:60px; color:black;"">+</div>","","","","","","","","","","",""
"","null","image-keyboard-response","75","2.0.0","172949","pcxoro96btl","goat","","null","stimuli/organized/STATE/USED/Sgiftbag1.jpg","","","","","memory","false","state","true","","",""
"","null","html-keyboard-response","76","2.0.0","173952","pcxoro96btl","goat","","null","<div style=""font-size:60px; color:black;"">+</div>","","","","","","","","","","",""
"","null","image-keyboard-response","77","2.0.0","176955","pcxoro96btl","goat","","null","stimuli/organized/EXEMPLAR/USED/Efeather2.jpg","","","","","memory","false","exemplar","true","","",""
"","null","html-keyboard-response","78","2.0.0","177957","pcxoro96btl","goat","","null","<div style=""font-size:60px; color:black;"">+</div>","","","","","","","","","","",""
"","null","image-keyboard-response","79","2.0.0","180961","pcxoro96btl","goat","","null","stimuli/organized/STATE/USED/Sbreadbox1.JPG","","","","","memory","false","state","true","","",""
"","null","html-keyboard-response","80","2.0.0","181963","pcxoro96btl","goat","","null","<div style=""font-size:60px; color:black;"">+</div>","","","","","","","","","","",""
"","null","image-keyboard-response","81","2.0.0","184966","pcxoro96btl","goat","","null","stimuli/organized/STATE/USED/Sabacus1.jpg","","","","","memory","false","state","true","","",""
"","null","html-keyboard-response","82","2.0.0","185969","pcxoro96btl","goat","","null","<div style=""font-size:60px; color:black;"">+</div>","","","","","","","","","","",""
"","null","image-keyboard-response","83","2.0.0","188972","pcxoro96btl","goat","","null","stimuli/organized/Novel pairs (tested)/n06blipstick.jpg","","","","","memory","false","novel","true","","",""
"","null","html-keyboard-response","84","2.0.0","189975","pcxoro96btl","goat","","null","<div style=""font-size:60px; color:black;"">+</div>","","","","","","","","","","",""
"","null","image-keyboard-response","85","2.0.0","192979","pcxoro96btl","goat","","null","stimuli/organized/EXEMPLAR/USED/Edispenser2.jpg","","","","","memory","false","exemplar","true","","",""
"","null","html-keyboard-response","86","2.0.0","193980","pcxoro96btl","goat","","null","<div style=""font-size:60px; color:black;"">+</div>","","","","","","","","","","",""
"","null","image-keyboard-response","87","2.0.0","196983","pcxoro96btl","goat","","null","stimuli/organized/EXEMPLAR/USED/Ecalculator2.jpg","","","","","memory","false","exemplar","true","","",""
"","null","html-keyboard-response","88","2.0.0","197984","pcxoro96btl","goat","","null","<div style=""font-size:60px; color:black;"">+</div>","","","","","","","","","","",""
"","null","image-keyboard-response","89","2.0.0","200987","pcxoro96btl","goat","","null","stimuli/organized/Novel pairs (tested)/n17bweddingdress.jpg","","","","","memory","false","novel","true","","",""
"","null","html-keyboard-response","90","2.0.0","201990","pcxoro96btl","goat","","null","<div style=""font-size:60px; color:black;"">+</div>","","","","","","","","","","",""
"","null","image-keyboard-response","91","2.0.0","204993","pcxoro96btl","goat","","null","stimuli/organized/STATE/USED/Sbureau1.JPG","","","","","memory","false","state","true","","",""
"","null","html-keyboard-response","92","2.0.0","205995","pcxoro96btl","goat","","null","<div style=""font-size:60px; color:black;"">+</div>","","","","","","","","","","",""
"","null","image-keyboard-response","93","2.0.0","208998","pcxoro96btl","goat","","null","stimuli/organized/EXEMPLAR/USED/Egoggles2.jpg","","","","","memory","false","exemplar","true","","",""
"","null","html-keyboard-response","94","2.0.0","210000","pcxoro96btl","goat","","null","<div style=""font-size:60px; color:black;"">+</div>","","","","","","","","","","",""
"","null","image-keyboard-response","95","2.0.0","213004","pcxoro96btl","goat","","null","stimuli/organized/Novel pairs (tested)/n01bcoin.jpg","","","","","memory","false","novel","true","","",""
"","null","html-keyboard-response","96","2.0.0","214006","pcxoro96btl","goat","","null","<div style=""font-size:60px; color:black;"">+</div>","","","","","","","","","","",""
"","null","image-keyboard-response","97","2.0.0","217010","pcxoro96btl","goat","","null","stimuli/organized/Novel pairs (tested)/n11abatteries.jpg","","","","","memory","false","novel","true","","",""
"","null","html-keyboard-response","98","2.0.0","218011","pcxoro96btl","goat","","null","<div style=""font-size:60px; color:black;"">+</div>","","","","","","","","","","",""
"","1944","image-keyboard-response","99","2.0.0","221015","pcxoro96btl","goat",""," ","stimuli/organized/EXEMPLAR/USED/Ebasket1.jpg","","","","","memory","true","exemplar","true","","",""
"","null","html-keyboard-response","100","2.0.0","222016","pcxoro96btl","goat","","null","<div style=""font-size:60px; color:green;"">+</div>","","","","","","","","","","",""
"","null","image-keyboard-response","101","2.0.0","225019","pcxoro96btl","goat","","null","stimuli/organized/EXEMPLAR/USED/Ebicycle2.jpg","","","","","memory","false","exemplar","true","","",""
"","null","html-keyboard-response","102","2.0.0","226022","pcxoro96btl","goat","","null","<div style=""font-size:60px; color:black;"">+</div>","","","","","","","","","","",""
"","null","image-keyboard-response","103","2.0.0","229025","pcxoro96btl","goat","","null","stimuli/organized/STATE/USED/Shairbrush2.jpg","","","","","memory","false","state","true","","",""
"","null","html-keyboard-response","104","2.0.0","230027","pcxoro96btl","goat","","null","<div style=""font-size:60px; color:black;"">+</div>","","","","","","","","","","",""
"","null","image-keyboard-response","105","2.0.0","233030","pcxoro96btl","goat","","null","stimuli/organized/Novel pairs (tested)/n18apretzel.jpg","","","","","memory","false","novel","true","","",""
"","null","html-keyboard-response","106","2.0.0","234032","pcxoro96btl","goat","","null","<div style=""font-size:60px; color:black;"">+</div>","","","","","","","","","","",""
"","null","image-keyboard-response","107","2.0.0","237034","pcxoro96btl","goat","","null","stimuli/organized/STATE/USED/Sapplesgreenbasket1.jpg","","","","","memory","false","state","true","","",""
"","null","html-keyboard-response","108","2.0.0","238036","pcxoro96btl","goat","","null","<div style=""font-size:60px; color:black;"">+</div>","","","","","","","","","","",""
"","null","image-keyboard-response","109","2.0.0","241040","pcxoro96btl","goat","","null","stimuli/organized/STATE/USED/Sdishes1.JPG","","","","","memory","false","state","true","","",""
"","null","html-keyboard-response","110","2.0.0","242043","pcxoro96btl","goat","","null","<div style=""font-size:60px; color:black;"">+</div>","","","","","","","","","","",""
"","null","image-keyboard-response","111","2.0.0","245046","pcxoro96btl","goat","","null","stimuli/organized/EXEMPLAR/USED/Efan2.jpg","","","","","memory","false","exemplar","true","","",""
"","null","html-keyboard-response","112","2.0.0","246049","pcxoro96btl","goat","","null","<div style=""font-size:60px; color:black;"">+</div>","","","","","","","","","","",""
"","null","image-keyboard-response","113","2.0.0","249052","pcxoro96btl","goat","","null","stimuli/organized/STATE/USED/Sbottles1.JPG","","","","","memory","false","state","true","","",""
"","null","html-keyboard-response","114","2.0.0","250054","pcxoro96btl","goat","","null","<div style=""font-size:60px; color:black;"">+</div>","","","","","","","","","","",""
"","null","image-keyboard-response","115","2.0.0","253057","pcxoro96btl","goat","","null","stimuli/organized/STATE/USED/Sdryer2.jpg","","","","","memory","false","state","true","","",""
"","null","html-keyboard-response","116","2.0.0","254060","pcxoro96btl","goat","","null","<div style=""font-size:60px; color:black;"">+</div>","","","","","","","","","","",""
"","null","image-keyboard-response","117","2.0.0","257062","pcxoro96btl","goat","","null","stimuli/organized/STATE/USED/Schinesefoodbox1.jpg","","","","","memory","false","state","true","","",""
"","null","html-keyboard-response","118","2.0.0","258065","pcxoro96btl","goat","","null","<div style=""font-size:60px; color:black;"">+</div>","","","","","","","","","","",""
"","null","image-keyboard-response","119","2.0.0","261068","pcxoro96btl","goat","","null","stimuli/organized/EXEMPLAR/USED/Econe1.jpg","","","","","memory","false","exemplar","true","","",""
"","null","html-keyboard-response","120","2.0.0","262071","pcxoro96btl","goat","","null","<div style=""font-size:60px; color:black;"">+</div>","","","","","","","","","","",""
"","null","image-keyboard-response","121","2.0.0","265075","pcxoro96btl","goat","","null","stimuli/organized/EXEMPLAR/USED/Egame2.jpg","","","","","memory","false","exemplar","true","","",""
"","null","html-keyboard-response","122","2.0.0","266077","pcxoro96btl","goat","","null","<div style=""font-size:60px; color:black;"">+</div>","","","","","","","","","","",""
"","null","image-keyboard-response","123","2.0.0","269080","pcxoro96btl","goat","","null","stimuli/organized/Novel pairs (tested)/n02bsafetypin.jpg","","","","","memory","false","novel","true","","",""
"","null","html-keyboard-response","124","2.0.0","270082","pcxoro96btl","goat","","null","<div style=""font-size:60px; color:black;"">+</div>","","","","","","","","","","",""
"","null","image-keyboard-response","125","2.0.0","273085","pcxoro96btl","goat","","null","stimuli/organized/EXEMPLAR/USED/Ecamera2.jpg","","","","","memory","false","exemplar","true","","",""
"","null","html-keyboard-response","126","2.0.0","274087","pcxoro96btl","goat","","null","<div style=""font-size:60px; color:black;"">+</div>","","","","","","","","","","",""
"","null","image-keyboard-response","127","2.0.0","277090","pcxoro96btl","goat","","null","stimuli/organized/Novel pairs (tested)/n04ayarn.jpg","","","","","memory","false","novel","true","","",""
"","null","html-keyboard-response","128","2.0.0","278093","pcxoro96btl","goat","","null","<div style=""font-size:60px; color:black;"">+</div>","","","","","","","","","","",""
"","2150","image-keyboard-response","129","2.0.0","281097","pcxoro96btl","goat",""," ","stimuli/organized/STATE/USED/Spotpan1.JPG","","","","","memory","true","state","true","","",""
"","null","html-keyboard-response","130","2.0.0","282099","pcxoro96btl","goat","","null","<div style=""font-size:60px; color:green;"">+</div>","","","","","","","","","","",""
"","null","image-keyboard-response","131","2.0.0","285101","pcxoro96btl","goat","","null","stimuli/organized/Novel pairs (tested)/n14acigarette.jpg","","","","","memory","false","novel","true","","",""
"","null","html-keyboard-response","132","2.0.0","286104","pcxoro96btl","goat","","null","<div style=""font-size:60px; color:black;"">+</div>","","","","","","","","","","",""
"","null","image-keyboard-response","133","2.0.0","289107","pcxoro96btl","goat","","null","stimuli/organized/STATE/USED/Scoffeemaker1.JPG","","","","","memory","false","state","true","","",""
"","null","html-keyboard-response","134","2.0.0","290110","pcxoro96btl","goat","","null","<div style=""font-size:60px; color:black;"">+</div>","","","","","","","","","","",""
"","null","image-keyboard-response","135","2.0.0","293113","pcxoro96btl","goat","","null","stimuli/organized/STATE/USED/Sdonut2.jpg","","","","","memory","false","state","true","","",""
"","null","html-keyboard-response","136","2.0.0","294115","pcxoro96btl","goat","","null","<div style=""font-size:60px; color:black;"">+</div>","","","","","","","","","","",""
"","null","image-keyboard-response","137","2.0.0","297118","pcxoro96btl","goat","","null","stimuli/organized/STATE/USED/Sscanner1.JPG","","","","","memory","false","state","true","","",""
"","null","html-keyboard-response","138","2.0.0","298120","pcxoro96btl","goat","","null","<div style=""font-size:60px; color:black;"">+</div>","","","","","","","","","","",""
"","null","image-keyboard-response","139","2.0.0","301122","pcxoro96btl","goat","","null","stimuli/organized/Novel pairs (tested)/n07apotato.jpg","","","","","memory","false","novel","true","","",""
"","null","html-keyboard-response","140","2.0.0","302124","pcxoro96btl","goat","","null","<div style=""font-size:60px; color:black;"">+</div>","","","","","","","","","","",""
"","null","image-keyboard-response","141","2.0.0","305127","pcxoro96btl","goat","","null","stimuli/organized/STATE/USED/Sdresser1.jpg","","","","","memory","false","state","true","","",""
"","null","html-keyboard-response","142","2.0.0","306130","pcxoro96btl","goat","","null","<div style=""font-size:60px; color:black;"">+</div>","","","","","","","","","","",""
"","null","image-keyboard-response","143","2.0.0","309133","pcxoro96btl","goat","","null","stimuli/organized/Novel pairs (tested)/n19bhairbrush.jpg","","","","","memory","false","novel","true","","",""
"","null","html-keyboard-response","144","2.0.0","310135","pcxoro96btl","goat","","null","<div style=""font-size:60px; color:black;"">+</div>","","","","","","","","","","",""
"","null","image-keyboard-response","145","2.0.0","313138","pcxoro96btl","goat","","null","stimuli/organized/EXEMPLAR/USED/Eframe1.jpg","","","","","memory","false","exemplar","true","","",""
"","null","html-keyboard-response","146","2.0.0","314140","pcxoro96btl","goat","","null","<div style=""font-size:60px; color:black;"">+</div>","","","","","","","","","","",""
"","null","image-keyboard-response","147","2.0.0","317143","pcxoro96btl","goat","","null","stimuli/organized/STATE/USED/Scontainer2.JPG","","","","","memory","false","state","true","","",""
"","null","html-keyboard-response","148","2.0.0","318145","pcxoro96btl","goat","","null","<div style=""font-size:60px; color:black;"">+</div>","","","","","","","","","","",""
"","null","image-keyboard-response","149","2.0.0","321148","pcxoro96btl","goat","","null","stimuli/organized/STATE/USED/Sbabytoy2.JPG","","","","","memory","false","state","true","","",""
"","null","html-keyboard-response","150","2.0.0","322150","pcxoro96btl","goat","","null","<div style=""font-size:60px; color:black;"">+</div>","","","","","","","","","","",""
"","null","image-keyboard-response","151","2.0.0","325153","pcxoro96btl","goat","","null","stimuli/organized/STATE/USED/Sphone1.JPG","","","","","memory","false","state","true","","",""
"","null","html-keyboard-response","152","2.0.0","326155","pcxoro96btl","goat","","null","<div style=""font-size:60px; color:black;"">+</div>","","","","","","","","","","",""
"","611","image-keyboard-response","153","2.0.0","329158","pcxoro96btl","goat",""," ","stimuli/organized/Novel pairs (tested)/n07apotato.jpg","","","","","memory","true","novel","true","","",""
"","null","html-keyboard-response","154","2.0.0","330161","pcxoro96btl","goat","","null","<div style=""font-size:60px; color:green;"">+</div>","","","","","","","","","","",""
"","null","image-keyboard-response","155","2.0.0","333164","pcxoro96btl","goat","","null","stimuli/organized/STATE/USED/Sbrushes1.jpg","","","","","memory","false","state","true","","",""
"","null","html-keyboard-response","156","2.0.0","334165","pcxoro96btl","goat","","null","<div style=""font-size:60px; color:black;"">+</div>","","","","","","","","","","",""
"","null","image-keyboard-response","157","2.0.0","337168","pcxoro96btl","goat","","null","stimuli/organized/STATE/USED/Sfiretrucktoy2.jpg","","","","","memory","false","state","true","","",""
"","null","html-keyboard-response","158","2.0.0","338169","pcxoro96btl","goat","","null","<div style=""font-size:60px; color:black;"">+</div>","","","","","","","","","","",""
"","null","image-keyboard-response","159","2.0.0","341172","pcxoro96btl","goat","","null","stimuli/organized/EXEMPLAR/USED/Eglobe1.jpg","","","","","memory","false","exemplar","true","","",""
"","null","html-keyboard-response","160","2.0.0","342173","pcxoro96btl","goat","","null","<div style=""font-size:60px; color:black;"">+</div>","","","","","","","","","","",""
"","null","image-keyboard-response","161","2.0.0","345176","pcxoro96btl","goat","","null","stimuli/organized/Novel pairs (tested)/n12bwatch.jpg","","","","","memory","false","novel","true","","",""
"","null","html-keyboard-response","162","2.0.0","346179","pcxoro96btl","goat","","null","<div style=""font-size:60px; color:black;"">+</div>","","","","","","","","","","",""
"","679","image-keyboard-response","163","2.0.0","349182","pcxoro96btl","goat",""," ","stimuli/organized/EXEMPLAR/USED/Eglobe1.jpg","","","","","memory","true","exemplar","true","","",""
"","null","html-keyboard-response","164","2.0.0","350184","pcxoro96btl","goat","","null","<div style=""font-size:60px; color:green;"">+</div>","","","","","","","","","","",""
"","629","image-keyboard-response","165","2.0.0","353187","pcxoro96btl","goat",""," ","stimuli/organized/STATE/USED/Sfiretrucktoy2.jpg","","","","","memory","true","state","true","","",""
"","1866","html-button-response","166","2.0.0","355055","pcxoro96btl","goat","","0","<p>You have completed the study phase.</p><p>Take a short break. Press the button below when you are ready to continue.</p>","","","","","","","","","","",""
"","5115","html-keyboard-response","167","2.0.0","360171","pcxoro96btl","goat",""," ","<p>You will now be shown pairs of images.</p><p>Select the image you remember seeing during the study phase.</p><p>Focus on accuracy, not speed.</p><p>Press any key to begin.</p>","","","","","","","","","","",""
"","1999","html-button-response","168","2.0.0","362172","pcxoro96btl","goat","","1","Which of these items did you see earlier?","","","","","test","","novel","true","stimuli/organized/Novel pairs (tested)/n12bwatch.jpg","stimuli/organized/Novel pairs (tested)/n12atelescope.jpg","1"
"","832","html-button-response","169","2.0.0","363005","pcxoro96btl","goat","","0","Which of these items did you see earlier?","","","","","test","","novel","true","stimuli/organized/Novel pairs (tested)/n07apotato.jpg","stimuli/organized/Novel pairs (tested)/n07bswimmingpool.jpg","0"
"","1015","html-button-response","170","2.0.0","364022","pcxoro96btl","goat","","1","Which of these items did you see earlier?","","","","","test","","novel","true","stimuli/organized/Novel pairs (tested)/n14acigarette.jpg","stimuli/organized/Novel pairs (tested)/n14bgolfball.jpg","1"
"","798","html-button-response","171","2.0.0","364822","pcxoro96btl","goat","","1","Which of these items did you see earlier?","","","","","test","","exemplar","true","stimuli/organized/EXEMPLAR/USED/Echocolatebar2.jpg","stimuli/organized/EXEMPLAR/USED/Echocolatebar1.jpg","1"
"","2948","html-button-response","172","2.0.0","367772","pcxoro96btl","goat","","0","Which of these items did you see earlier?","","","","","test","","state","true","stimuli/organized/STATE/USED/Sbriefcase1.jpg","stimuli/organized/STATE/USED/Sbriefcase2.jpg","0"
"","1032","html-button-response","173","2.0.0","368806","pcxoro96btl","goat","","0","Which of these items did you see earlier?","","","","","test","","state","true","stimuli/organized/STATE/USED/Sapplesgreenbasket1.jpg","stimuli/organized/STATE/USED/Sapplesgreenbasket2.jpg","0"
"","1999","html-button-response","174","2.0.0","370806","pcxoro96btl","goat","","1","Which of these items did you see earlier?","","","","","test","","novel","true","stimuli/organized/Novel pairs (tested)/n20acarseat.jpg","stimuli/organized/Novel pairs (tested)/n20bshelf.jpg","1"
"","948","html-button-response","175","2.0.0","371756","pcxoro96btl","goat","","1","Which of these items did you see earlier?","","","","","test","","state","true","stimuli/organized/STATE/USED/Sbooks1.JPG","stimuli/organized/STATE/USED/Sbooks2.JPG","1"
"","1282","html-button-response","176","2.0.0","373039","pcxoro96btl","goat","","0","Which of these items did you see earlier?","","","","","test","","state","true","stimuli/organized/STATE/USED/Spotpan1.JPG","stimuli/organized/STATE/USED/Spotpan2.JPG","0"
"","2065","html-button-response","177","2.0.0","375106","pcxoro96btl","goat","","1","Which of these items did you see earlier?","","","","","test","","novel","true","stimuli/organized/Novel pairs (tested)/n08bpaperclip.jpg","stimuli/organized/Novel pairs (tested)/n08aoven.jpg","1"
"","1081","html-button-response","178","2.0.0","376189","pcxoro96btl","goat","","1","Which of these items did you see earlier?","","","","","test","","novel","true","stimuli/organized/Novel pairs (tested)/n02bsafetypin.jpg","stimuli/organized/Novel pairs (tested)/n02aaxe.jpg","1"
"","1432","html-button-response","179","2.0.0","377622","pcxoro96btl","goat","","1","Which of these items did you see earlier?","","","","","test","","state","true","stimuli/organized/STATE/USED/Scoffeemaker1.JPG","stimuli/organized/STATE/USED/Scoffeemaker2.JPG","1"
"","949","html-button-response","180","2.0.0","378573","pcxoro96btl","goat","","1","Which of these items did you see earlier?","","","","","test","","exemplar","true","stimuli/organized/EXEMPLAR/USED/Egoggles2.jpg","stimuli/organized/EXEMPLAR/USED/Egoggles1.jpg","1"
"","1448","html-button-response","181","2.0.0","380022","pcxoro96btl","goat","","1","Which of these items did you see earlier?","","","","","test","","novel","true","stimuli/organized/Novel pairs (tested)/n13bdustpan.jpg","stimuli/organized/Novel pairs (tested)/n13ablueberries.jpg","1"
"","1198","html-button-response","182","2.0.0","381222","pcxoro96btl","goat","","1","Which of these items did you see earlier?","","","","","test","","state","true","stimuli/organized/STATE/USED/Sbelt2.jpg","stimuli/organized/STATE/USED/Sbelt1.jpg","1"
"","1232","html-button-response","183","2.0.0","382456","pcxoro96btl","goat","","0","Which of these items did you see earlier?","","","","","test","","state","true","stimuli/organized/STATE/USED/Scookies2.JPG","stimuli/organized/STATE/USED/Scookies1.JPG","0"
"","1815","html-button-response","184","2.0.0","384273","pcxoro96btl","goat","","1","Which of these items did you see earlier?","","","","","test","","state","true","stimuli/organized/STATE/USED/Shairbrush2.jpg","stimuli/organized/STATE/USED/Shairbrush1.jpg","1"
"","1065","html-button-response","185","2.0.0","385339","pcxoro96btl","goat","","1","Which of these items did you see earlier?","","","","","test","","novel","true","stimuli/organized/Novel pairs (tested)/n19bhairbrush.jpg","stimuli/organized/Novel pairs (tested)/n19apickle.jpg","1"
"","2115","html-button-response","186","2.0.0","387456","pcxoro96btl","goat","","1","Which of these items did you see earlier?","","","","","test","","state","false","stimuli/organized/STATE/USED/Sjuiceglass1.JPG","stimuli/organized/STATE/USED/Sjuiceglass2.JPG","0"
"","1432","html-button-response","187","2.0.0","388889","pcxoro96btl","goat","","1","Which of these items did you see earlier?","","","","","test","","state","false","stimuli/organized/STATE/USED/Sdrum2.jpg","stimuli/organized/STATE/USED/Sdrum1.jpg","0"
"","5699","html-button-response","188","2.0.0","394590","pcxoro96btl","goat","","1","Which of these items did you see earlier?","","","","","test","","state","true","stimuli/organized/STATE/USED/Sgiftbag1.jpg","stimuli/organized/STATE/USED/Sgiftbag2.jpg","1"
"","1532","html-button-response","189","2.0.0","396123","pcxoro96btl","goat","","0","Which of these items did you see earlier?","","","","","test","","state","true","stimuli/organized/STATE/USED/Sgiftbox1.jpg","stimuli/organized/STATE/USED/Sgiftbox2.jpg","0"
"","1315","html-button-response","190","2.0.0","397440","pcxoro96btl","goat","","1","Which of these items did you see earlier?","","","","","test","","novel","true","stimuli/organized/Novel pairs (tested)/n03bbagel.jpg","stimuli/organized/Novel pairs (tested)/n03acamel.jpg","1"
"","1965","html-button-response","191","2.0.0","399406","pcxoro96btl","goat","","0","Which of these items did you see earlier?","","","","","test","","exemplar","true","stimuli/organized/EXEMPLAR/USED/Efan2.jpg","stimuli/organized/EXEMPLAR/USED/Efan1.jpg","0"
"","1015","html-button-response","192","2.0.0","400423","pcxoro96btl","goat","","0","Which of these items did you see earlier?","","","","","test","","exemplar","true","stimuli/organized/EXEMPLAR/USED/Egrapes1.jpg","stimuli/organized/EXEMPLAR/USED/Egrapes2.jpg","0"
"","1432","html-button-response","193","2.0.0","401856","pcxoro96btl","goat","","0","Which of these items did you see earlier?","","","","","test","","state","true","stimuli/organized/STATE/USED/Sdonut2.jpg","stimuli/organized/STATE/USED/Sdonut1.jpg","0"
"","1115","html-button-response","194","2.0.0","402973","pcxoro96btl","goat","","1","Which of these items did you see earlier?","","","","","test","","state","true","stimuli/organized/STATE/USED/Sfiretrucktoy2.jpg","stimuli/organized/STATE/USED/Sfiretrucktoy1.jpg","1"
"","1215","html-button-response","195","2.0.0","404189","pcxoro96btl","goat","","0","Which of these items did you see earlier?","","","","","test","","novel","true","stimuli/organized/Novel pairs (tested)/n15aspiderweb.jpg","stimuli/organized/Novel pairs (tested)/n15bfootball.jpg","0"
"","1083","html-button-response","196","2.0.0","405273","pcxoro96btl","goat","","0","Which of these items did you see earlier?","","","","","test","","state","true","stimuli/organized/STATE/USED/Sbottles1.JPG","stimuli/organized/STATE/USED/Sbottles2.JPG","0"
"","2048","html-button-response","197","2.0.0","407323","pcxoro96btl","goat","","1","Which of these items did you see earlier?","","","","","test","","novel","true","stimuli/organized/Novel pairs (tested)/n10awindmill.jpg","stimuli/organized/Novel pairs (tested)/n10bturkey.jpg","1"
"","1916","html-button-response","198","2.0.0","409241","pcxoro96btl","goat","","1","Which of these items did you see earlier?","","","","","test","","state","true","stimuli/organized/STATE/USED/Sdishes1.JPG","stimuli/organized/STATE/USED/Sdishes2.JPG","1"
"","1031","html-button-response","199","2.0.0","410273","pcxoro96btl","goat","","0","Which of these items did you see earlier?","","","","","test","","exemplar","true","stimuli/organized/EXEMPLAR/USED/Ebicycle2.jpg","stimuli/organized/EXEMPLAR/USED/Ebicycle1.jpg","0"
"","1899","html-button-response","200","2.0.0","412174","pcxoro96btl","goat","","0","Which of these items did you see earlier?","","","","","test","","exemplar","true","stimuli/organized/EXEMPLAR/USED/Ebell2.jpg","stimuli/organized/EXEMPLAR/USED/Ebell1.jpg","0"
"","1265","html-button-response","201","2.0.0","413440","pcxoro96btl","goat","","0","Which of these items did you see earlier?","","","","","test","","state","true","stimuli/organized/STATE/USED/Sdie1.jpg","stimuli/organized/STATE/USED/Sdie2.jpg","0"
"","932","html-button-response","202","2.0.0","414374","pcxoro96btl","goat","","0","Which of these items did you see earlier?","","","","","test","","exemplar","true","stimuli/organized/EXEMPLAR/USED/Ebracelet1.jpg","stimuli/organized/EXEMPLAR/USED/Ebracelet2.jpg","0"
"","1715","html-button-response","203","2.0.0","416090","pcxoro96btl","goat","","0","Which of these items did you see earlier?","","","","","test","","exemplar","true","stimuli/organized/EXEMPLAR/USED/Ecalculator2.jpg","stimuli/organized/EXEMPLAR/USED/Ecalculator1.jpg","0"
"","1148","html-button-response","204","2.0.0","417240","pcxoro96btl","goat","","0","Which of these items did you see earlier?","","","","","test","","state","false","stimuli/organized/STATE/USED/Sbreadbox1.JPG","stimuli/organized/STATE/USED/Sbreadbox2.JPG","1"
"","1515","html-button-response","205","2.0.0","418756","pcxoro96btl","goat","","1","Which of these items did you see earlier?","","","","","test","","state","true","stimuli/organized/STATE/USED/Spie2.JPG","stimuli/organized/STATE/USED/Spie1.JPG","1"
"","1082","html-button-response","206","2.0.0","419839","pcxoro96btl","goat","","1","Which of these items did you see earlier?","","","","","test","","state","true","stimuli/organized/STATE/USED/Sbox2.jpg","stimuli/organized/STATE/USED/Sbox1.jpg","1"
"","1350","html-button-response","207","2.0.0","421191","pcxoro96btl","goat","","1","Which of these items did you see earlier?","","","","","test","","state","true","stimuli/organized/STATE/USED/Slaptop2.JPG","stimuli/organized/STATE/USED/Slaptop1.JPG","1"
"","1565","html-button-response","208","2.0.0","422757","pcxoro96btl","goat","","1","Which of these items did you see earlier?","","","","","test","","state","false","stimuli/organized/STATE/USED/Sabacus1.jpg","stimuli/organized/STATE/USED/Sabacus2.jpg","0"
"","1982","html-button-response","209","2.0.0","424740","pcxoro96btl","goat","","1","Which of these items did you see earlier?","","","","","test","","exemplar","true","stimuli/organized/EXEMPLAR/USED/Edispenser2.jpg","stimuli/organized/EXEMPLAR/USED/Edispenser1.jpg","1"
"","1599","html-button-response","210","2.0.0","426340","pcxoro96btl","goat","","1","Which of these items did you see earlier?","","","","","test","","exemplar","true","stimuli/organized/EXEMPLAR/USED/Ecamera2.jpg","stimuli/organized/EXEMPLAR/USED/Ecamera1.jpg","1"
"","4098","html-button-response","211","2.0.0","430440","pcxoro96btl","goat","","0","Which of these items did you see earlier?","","","","","test","","exemplar","false","stimuli/organized/EXEMPLAR/USED/Ecabinet2.jpg","stimuli/organized/EXEMPLAR/USED/Ecabinet1.jpg","1"
"","982","html-button-response","212","2.0.0","431424","pcxoro96btl","goat","","0","Which of these items did you see earlier?","","","","","test","","exemplar","true","stimuli/organized/EXEMPLAR/USED/Egame2.jpg","stimuli/organized/EXEMPLAR/USED/Egame1.jpg","0"
"","998","html-button-response","213","2.0.0","432423","pcxoro96btl","goat","","0","Which of these items did you see earlier?","","","","","test","","novel","true","stimuli/organized/Novel pairs (tested)/n16bhammer.jpg","stimuli/organized/Novel pairs (tested)/n16abananas.jpg","0"
"","1083","html-button-response","214","2.0.0","433507","pcxoro96btl","goat","","1","Which of these items did you see earlier?","","","","","test","","novel","true","stimuli/organized/Novel pairs (tested)/n09apenguin.jpg","stimuli/organized/Novel pairs (tested)/n09bsaddle.jpg","1"
"","1499","html-button-response","215","2.0.0","435007","pcxoro96btl","goat","","1","Which of these items did you see earlier?","","","","","test","","state","false","stimuli/organized/STATE/USED/Sbureau1.JPG","stimuli/organized/STATE/USED/Sbureau2.JPG","0"
"","2715","html-button-response","216","2.0.0","437724","pcxoro96btl","goat","","0","Which of these items did you see earlier?","","","","","test","","state","true","stimuli/organized/STATE/USED/Sphone1.JPG","stimuli/organized/STATE/USED/Sphone2.JPG","0"
"","1415","html-button-response","217","2.0.0","439140","pcxoro96btl","goat","","0","Which of these items did you see earlier?","","","","","test","","state","true","stimuli/organized/STATE/USED/Schinesefoodbox1.jpg","stimuli/organized/STATE/USED/Schinesefoodbox2.jpg","0"
"","949","html-button-response","218","2.0.0","440091","pcxoro96btl","goat","","0","Which of these items did you see earlier?","","","","","test","","state","true","stimuli/organized/STATE/USED/Sscissors1.JPG","stimuli/organized/STATE/USED/Sscissors2.JPG","0"
"","2215","html-button-response","219","2.0.0","442307","pcxoro96btl","goat","","0","Which of these items did you see earlier?","","","","","test","","novel","false","stimuli/organized/Novel pairs (tested)/n05bcactus.jpg","stimuli/organized/Novel pairs (tested)/n05abarrel.jpg","1"
"","1099","html-button-response","220","2.0.0","443407","pcxoro96btl","goat","","0","Which of these items did you see earlier?","","","","","test","","state","true","stimuli/organized/STATE/USED/Sflask2.jpg","stimuli/organized/STATE/USED/Sflask1.jpg","0"
"","1098","html-button-response","221","2.0.0","444507","pcxoro96btl","goat","","1","Which of these items did you see earlier?","","","","","test","","state","true","stimuli/organized/STATE/USED/Sdryer2.jpg","stimuli/organized/STATE/USED/Sdryer1.jpg","1"
"","865","html-button-response","222","2.0.0","445374","pcxoro96btl","goat","","1","Which of these items did you see earlier?","","","","","test","","novel","true","stimuli/organized/Novel pairs (tested)/n17bweddingdress.jpg","stimuli/organized/Novel pairs (tested)/n17avendingmachine.jpg","1"
"","3432","html-button-response","223","2.0.0","448807","pcxoro96btl","goat","","0","Which of these items did you see earlier?","","","","","test","","state","false","stimuli/organized/STATE/USED/Sgrinder2.jpg","stimuli/organized/STATE/USED/Sgrinder1.jpg","1"
"","1165","html-button-response","224","2.0.0","449974","pcxoro96btl","goat","","1","Which of these items did you see earlier?","","","","","test","","state","true","stimuli/organized/STATE/USED/Sdresser1.jpg","stimuli/organized/STATE/USED/Sdresser2.jpg","1"
"","1382","html-button-response","225","2.0.0","451357","pcxoro96btl","goat","","0","Which of these items did you see earlier?","","","","","test","","state","true","stimuli/organized/STATE/USED/Scrayons2.jpg","stimuli/organized/STATE/USED/Scrayons1.jpg","0"
"","1149","html-button-response","226","2.0.0","452507","pcxoro96btl","goat","","0","Which of these items did you see earlier?","","","","","test","","exemplar","true","stimuli/organized/EXEMPLAR/USED/Ecar1.jpg","stimuli/organized/EXEMPLAR/USED/Ecar2.jpg","0"
"","798","html-button-response","227","2.0.0","453307","pcxoro96btl","goat","","0","Which of these items did you see earlier?","","","","","test","","exemplar","true","stimuli/organized/EXEMPLAR/USED/Econe1.jpg","stimuli/organized/EXEMPLAR/USED/Econe2.jpg","0"
"","1366","html-button-response","228","2.0.0","454674","pcxoro96btl","goat","","0","Which of these items did you see earlier?","","","","","test","","state","true","stimuli/organized/STATE/USED/Sbrushes1.jpg","stimuli/organized/STATE/USED/Sbrushes2.jpg","0"
"","765","html-button-response","229","2.0.0","455440","pcxoro96btl","goat","","0","Which of these items did you see earlier?","","","","","test","","exemplar","true","stimuli/organized/EXEMPLAR/USED/Ebasket1.jpg","stimuli/organized/EXEMPLAR/USED/Ebasket2.jpg","0"
"","1099","html-button-response","230","2.0.0","456541","pcxoro96btl","goat","","0","Which of these items did you see earlier?","","","","","test","","novel","true","stimuli/organized/Novel pairs (tested)/n18apretzel.jpg","stimuli/organized/Novel pairs (tested)/n18bsnail.jpg","0"
"","1048","html-button-response","231","2.0.0","457591","pcxoro96btl","goat","","0","Which of these items did you see earlier?","","","","","test","","state","true","stimuli/organized/STATE/USED/Scontainer2.JPG","stimuli/organized/STATE/USED/Scontainer1.JPG","0"
"","4632","html-button-response","232","2.0.0","462224","pcxoro96btl","goat","","0","Which of these items did you see earlier?","","","","","test","","state","true","stimuli/organized/STATE/USED/Seggs1.jpg","stimuli/organized/STATE/USED/Seggs2.jpg","0"
"","1132","html-button-response","233","2.0.0","463358","pcxoro96btl","goat","","0","Which of these items did you see earlier?","","","","","test","","exemplar","false","stimuli/organized/EXEMPLAR/USED/Efeather2.jpg","stimuli/organized/EXEMPLAR/USED/Efeather1.jpg","1"
"","965","html-button-response","234","2.0.0","464324","pcxoro96btl","goat","","0","Which of these items did you see earlier?","","","","","test","","novel","true","stimuli/organized/Novel pairs (tested)/n11abatteries.jpg","stimuli/organized/Novel pairs (tested)/n11bsock.jpg","0"
"","1165","html-button-response","235","2.0.0","465490","pcxoro96btl","goat","","0","Which of these items did you see earlier?","","","","","test","","novel","true","stimuli/organized/Novel pairs (tested)/n01bcoin.jpg","stimuli/organized/Novel pairs (tested)/n01aladybug.jpg","0"
"","1299","html-button-response","236","2.0.0","466791","pcxoro96btl","goat","","0","Which of these items did you see earlier?","","","","","test","","novel","true","stimuli/organized/Novel pairs (tested)/n04ayarn.jpg","stimuli/organized/Novel pairs (tested)/n04bbandaid.jpg","0"
"","1632","html-button-response","237","2.0.0","468425","pcxoro96btl","goat","","0","Which of these items did you see earlier?","","","","","test","","state","true","stimuli/organized/STATE/USED/Sbabytoy2.JPG","stimuli/organized/STATE/USED/Sbabytoy1.JPG","0"
"","1231","html-button-response","238","2.0.0","469658","pcxoro96btl","goat","","1","Which of these items did you see earlier?","","","","","test","","exemplar","true","stimuli/organized/EXEMPLAR/USED/Eglobe1.jpg","stimuli/organized/EXEMPLAR/USED/Eglobe2.jpg","1"
"","1848","html-button-response","239","2.0.0","471508","pcxoro96btl","goat","","1","Which of these items did you see earlier?","","","","","test","","exemplar","true","stimuli/organized/EXEMPLAR/USED/Eframe1.jpg","stimuli/organized/EXEMPLAR/USED/Eframe2.jpg","1"
"","1099","html-button-response","240","2.0.0","472608","pcxoro96btl","goat","","1","Which of these items did you see earlier?","","","","","test","","exemplar","true","stimuli/organized/EXEMPLAR/USED/Ebread2.jpg","stimuli/organized/EXEMPLAR/USED/Ebread1.jpg","1"
"","1116","html-button-response","241","2.0.0","473726","pcxoro96btl","goat","","0","Which of these items did you see earlier?","","","","","test","","novel","true","stimuli/organized/Novel pairs (tested)/n06blipstick.jpg","stimuli/organized/Novel pairs (tested)/n06acane.jpg","0"
"","2281","html-button-response","242","2.0.0","476008","pcxoro96btl","goat","","1","Which of these items did you see earlier?","","","","","test","","state","false","stimuli/organized/STATE/USED/Sscanner1.JPG","stimuli/organized/STATE/USED/Sscanner2.JPG","0"
"","5648","html-button-response","243","2.0.0","481658","pcxoro96btl","goat","","1","Which of these items did you see earlier?","","","","","test","","exemplar","true","stimuli/organized/EXEMPLAR/USED/Echisel1.jpg","stimuli/organized/EXEMPLAR/USED/Echisel2.jpg","1"
"","6748","survey-html-form","244","2.0.0","488408","pcxoro96btl","goat","","{""age"":""22"",""gender"":""female"",""memory_experiment_experience"":""yes""}","","","","","","","","","","","",""
"","1931","survey-text","245","2.0.0","490342","pcxoro96btl","goat","","{""task_guess"":""""}","","","","","","","","","","","",""
"","865","survey-text","246","2.0.0","491208","pcxoro96btl","goat","","{""technical_issues_question"":""""}","","","","","","","","","","","",""
