"success","rt","trial_type","trial_index","plugin_version","time_elapsed","random_id","participant","technical_issues","response","stimulus","timeout","failed_images","failed_audio","failed_video","trial_phase","is_repeat","test_type","correct","old_image","new_image","correct_position"
"true","1017","fullscreen","0","null","2028","pdlamerbw0c","bear","no","","","","","","","","","","","","",""
"","2609","survey-text","1","2.0.0","4643","pdlamerbw0c","bear","no","{""participant_id"":""bear""}","","","","","","","","","","","",""
"","9132","html-keyboard-response","2","2.0.0","13776","pdlamerbw0c","bear","no","Alt","
      <p>In this experiment, a series of objects will be displayed.</p>
      <p>Try to memorize as much as possible about the objects.</p>
      <p>If the image is a <strong> repeat</strong>, press the SPACEBAR.</p>
      <p>Press any key to begin.</p>
    ","","","","","","","","","","",""
"true","","preload","3","2.0.0","14541","pdlamerbw0c","bear","no","","","false","[]","[]","[]","","","","","","",""
"","null","html-keyboard-response","4","2.0.0","15544","pdlamerbw0c","bear","no","null","<div style=""font-size:60px;"">+</div>","","","","","","","","","","",""
"","null","image-keyboard-response","5","2.0.0","18553","pdlamerbw0c","bear","no","null","stimuli/organized/EXEMPLAR/USED/Ebell2.jpg","","","","","memory","false","exemplar","true","","",""
"","null","html-keyboard-response","6","2.0.0","19556","pdlamerbw0c","bear","no","null","<div style=""font-size:60px; color:black;"">+</div>","","","","","","","","","","",""
"","null","image-keyboard-response","7","2.0.0","22559","pdlamerbw0c","bear","no","null","stimuli/organized/STATE/USED/Sgiftbox2.jpg","","","","","memory","false","state","true","","",""
"","null","html-keyboard-response","8","2.0.0","23563","pdlamerbw0c","bear","no","null","<div style=""font-size:60px; color:black;"">+</div>","","","","","","","","","","",""
"","null","image-keyboard-response","9","2.0.0","26566","pdlamerbw0c","bear","no","null","stimuli/organized/STATE/USED/Sgiftbag1.jpg","","","","","memory","false","state","true","","",""
"","null","html-keyboard-response","10","2.0.0","27568","pdlamerbw0c","bear","no","null","<div style=""font-size:60px; color:black;"">+</div>","","","","","","","","","","",""
"","null","image-keyboard-response","11","2.0.0","30571","pdlamerbw0c","bear","no","null","stimuli/organized/STATE/USED/Sbureau1.JPG","","","","","memory","false","state","true","","",""
"","null","html-keyboard-response","12","2.0.0","31572","pdlamerbw0c","bear","no","null","<div style=""font-size:60px; color:black;"">+</div>","","","","","","","","","","",""
"","null","image-keyboard-response","13","2.0.0","34576","pdlamerbw0c","bear","no","null","stimuli/organized/STATE/USED/Sbreadbox2.JPG","","","","","memory","false","state","true","","",""
"","null","html-keyboard-response","14","2.0.0","35578","pdlamerbw0c","bear","no","null","<div style=""font-size:60px; color:black;"">+</div>","","","","","","","","","","",""
"","null","image-keyboard-response","15","2.0.0","38582","pdlamerbw0c","bear","no","null","stimuli/organized/STATE/USED/Sdryer1.jpg","","","","","memory","false","state","true","","",""
"","null","html-keyboard-response","16","2.0.0","39584","pdlamerbw0c","bear","no","null","<div style=""font-size:60px; color:black;"">+</div>","","","","","","","","","","",""
"","null","image-keyboard-response","17","2.0.0","42587","pdlamerbw0c","bear","no","null","stimuli/organized/STATE/USED/Spotpan1.JPG","","","","","memory","false","state","true","","",""
"","null","html-keyboard-response","18","2.0.0","43590","pdlamerbw0c","bear","no","null","<div style=""font-size:60px; color:black;"">+</div>","","","","","","","","","","",""
"","null","image-keyboard-response","19","2.0.0","46594","pdlamerbw0c","bear","no","null","stimuli/organized/Novel pairs (tested)/n13bdustpan.jpg","","","","","memory","false","novel","true","","",""
"","null","html-keyboard-response","20","2.0.0","47596","pdlamerbw0c","bear","no","null","<div style=""font-size:60px; color:black;"">+</div>","","","","","","","","","","",""
"","null","image-keyboard-response","21","2.0.0","50601","pdlamerbw0c","bear","no","null","stimuli/organized/Novel pairs (tested)/n02bsafetypin.jpg","","","","","memory","false","novel","true","","",""
"","null","html-keyboard-response","22","2.0.0","51604","pdlamerbw0c","bear","no","null","<div style=""font-size:60px; color:black;"">+</div>","","","","","","","","","","",""
"","null","image-keyboard-response","23","2.0.0","54607","pdlamerbw0c","bear","no","null","stimuli/organized/STATE/USED/Sfiretrucktoy1.jpg","","","","","memory","false","state","true","","",""
"","null","html-keyboard-response","24","2.0.0","55610","pdlamerbw0c","bear","no","null","<div style=""font-size:60px; color:black;"">+</div>","","","","","","","","","","",""
"","null","image-keyboard-response","25","2.0.0","58613","pdlamerbw0c","bear","no","null","stimuli/organized/Novel pairs (tested)/n01bcoin.jpg","","","","","memory","false","novel","true","","",""
"","null","html-keyboard-response","26","2.0.0","59615","pdlamerbw0c","bear","no","null","<div style=""font-size:60px; color:black;"">+</div>","","","","","","","","","","",""
"","null","image-keyboard-response","27","2.0.0","62618","pdlamerbw0c","bear","no","null","stimuli/organized/Novel pairs (tested)/n18apretzel.jpg","","","","","memory","false","novel","true","","",""
"","null","html-keyboard-response","28","2.0.0","63620","pdlamerbw0c","bear","no","null","<div style=""font-size:60px; color:black;"">+</div>","","","","","","","","","","",""
"","null","image-keyboard-response","29","2.0.0","66623","pdlamerbw0c","bear","no","null","stimuli/organized/EXEMPLAR/USED/Efeather1.jpg","","","","","memory","false","exemplar","true","","",""
"","null","html-keyboard-response","30","2.0.0","67625","pdlamerbw0c","bear","no","null","<div style=""font-size:60px; color:black;"">+</div>","","","","","","","","","","",""
"","null","image-keyboard-response","31","2.0.0","70628","pdlamerbw0c","bear","no","null","stimuli/organized/Novel pairs (tested)/n15bfootball.jpg","","","","","memory","false","novel","true","","",""
"","null","html-keyboard-response","32","2.0.0","71630","pdlamerbw0c","bear","no","null","<div style=""font-size:60px; color:black;"">+</div>","","","","","","","","","","",""
"","null","image-keyboard-response","33","2.0.0","74633","pdlamerbw0c","bear","no","null","stimuli/organized/STATE/USED/Sdrum1.jpg","","","","","memory","false","state","true","","",""
"","null","html-keyboard-response","34","2.0.0","75636","pdlamerbw0c","bear","no","null","<div style=""font-size:60px; color:black;"">+</div>","","","","","","","","","","",""
"","null","image-keyboard-response","35","2.0.0","78638","pdlamerbw0c","bear","no","null","stimuli/organized/EXEMPLAR/USED/Egame1.jpg","","","","","memory","false","exemplar","true","","",""
"","null","html-keyboard-response","36","2.0.0","79640","pdlamerbw0c","bear","no","null","<div style=""font-size:60px; color:black;"">+</div>","","","","","","","","","","",""
"","null","image-keyboard-response","37","2.0.0","82645","pdlamerbw0c","bear","no","null","stimuli/organized/STATE/USED/Sdie2.jpg","","","","","memory","false","state","true","","",""
"","null","html-keyboard-response","38","2.0.0","83647","pdlamerbw0c","bear","no","null","<div style=""font-size:60px; color:black;"">+</div>","","","","","","","","","","",""
"","null","image-keyboard-response","39","2.0.0","86650","pdlamerbw0c","bear","no","null","stimuli/organized/EXEMPLAR/USED/Ecalculator2.jpg","","","","","memory","false","exemplar","true","","",""
"","null","html-keyboard-response","40","2.0.0","87652","pdlamerbw0c","bear","no","null","<div style=""font-size:60px; color:black;"">+</div>","","","","","","","","","","",""
"","null","image-keyboard-response","41","2.0.0","90657","pdlamerbw0c","bear","no","null","stimuli/organized/EXEMPLAR/USED/Eglobe2.jpg","","","","","memory","false","exemplar","true","","",""
"","null","html-keyboard-response","42","2.0.0","91660","pdlamerbw0c","bear","no","null","<div style=""font-size:60px; color:black;"">+</div>","","","","","","","","","","",""
"","null","image-keyboard-response","43","2.0.0","94665","pdlamerbw0c","bear","no","null","stimuli/organized/STATE/USED/Spie2.JPG","","","","","memory","false","state","true","","",""
"","null","html-keyboard-response","44","2.0.0","95668","pdlamerbw0c","bear","no","null","<div style=""font-size:60px; color:black;"">+</div>","","","","","","","","","","",""
"","null","image-keyboard-response","45","2.0.0","98670","pdlamerbw0c","bear","no","null","stimuli/organized/STATE/USED/Shairbrush2.jpg","","","","","memory","false","state","true","","",""
"","null","html-keyboard-response","46","2.0.0","99672","pdlamerbw0c","bear","no","null","<div style=""font-size:60px; color:black;"">+</div>","","","","","","","","","","",""
"","null","image-keyboard-response","47","2.0.0","102675","pdlamerbw0c","bear","no","null","stimuli/organized/Novel pairs (tested)/n09apenguin.jpg","","","","","memory","false","novel","true","","",""
"","null","html-keyboard-response","48","2.0.0","103677","pdlamerbw0c","bear","no","null","<div style=""font-size:60px; color:black;"">+</div>","","","","","","","","","","",""
"","null","image-keyboard-response","49","2.0.0","106680","pdlamerbw0c","bear","no","null","stimuli/organized/Novel pairs (tested)/n07bswimmingpool.jpg","","","","","memory","false","novel","true","","",""
"","null","html-keyboard-response","50","2.0.0","107683","pdlamerbw0c","bear","no","null","<div style=""font-size:60px; color:black;"">+</div>","","","","","","","","","","",""
"","null","image-keyboard-response","51","2.0.0","110686","pdlamerbw0c","bear","no","null","stimuli/organized/Novel pairs (tested)/n03acamel.jpg","","","","","memory","false","novel","true","","",""
"","null","html-keyboard-response","52","2.0.0","111687","pdlamerbw0c","bear","no","null","<div style=""font-size:60px; color:black;"">+</div>","","","","","","","","","","",""
"","null","image-keyboard-response","53","2.0.0","114690","pdlamerbw0c","bear","no","null","stimuli/organized/EXEMPLAR/USED/Ebasket1.jpg","","","","","memory","false","exemplar","true","","",""
"","null","html-keyboard-response","54","2.0.0","115691","pdlamerbw0c","bear","no","null","<div style=""font-size:60px; color:black;"">+</div>","","","","","","","","","","",""
"","null","image-keyboard-response","55","2.0.0","118694","pdlamerbw0c","bear","no","null","stimuli/organized/EXEMPLAR/USED/Ebracelet1.jpg","","","","","memory","false","exemplar","true","","",""
"","null","html-keyboard-response","56","2.0.0","119696","pdlamerbw0c","bear","no","null","<div style=""font-size:60px; color:black;"">+</div>","","","","","","","","","","",""
"","null","image-keyboard-response","57","2.0.0","122699","pdlamerbw0c","bear","no","null","stimuli/organized/EXEMPLAR/USED/Echisel1.jpg","","","","","memory","false","exemplar","true","","",""
"","null","html-keyboard-response","58","2.0.0","123701","pdlamerbw0c","bear","no","null","<div style=""font-size:60px; color:black;"">+</div>","","","","","","","","","","",""
"","null","image-keyboard-response","59","2.0.0","126705","pdlamerbw0c","bear","no","null","stimuli/organized/Novel pairs (tested)/n06acane.jpg","","","","","memory","false","novel","true","","",""
"","null","html-keyboard-response","60","2.0.0","127708","pdlamerbw0c","bear","no","null","<div style=""font-size:60px; color:black;"">+</div>","","","","","","","","","","",""
"","null","image-keyboard-response","61","2.0.0","130711","pdlamerbw0c","bear","no","null","stimuli/organized/STATE/USED/Sbrushes2.jpg","","","","","memory","false","state","true","","",""
"","null","html-keyboard-response","62","2.0.0","131714","pdlamerbw0c","bear","no","null","<div style=""font-size:60px; color:black;"">+</div>","","","","","","","","","","",""
"","null","image-keyboard-response","63","2.0.0","134717","pdlamerbw0c","bear","no","null","stimuli/organized/Novel pairs (tested)/n05abarrel.jpg","","","","","memory","false","novel","true","","",""
"","null","html-keyboard-response","64","2.0.0","135720","pdlamerbw0c","bear","no","null","<div style=""font-size:60px; color:black;"">+</div>","","","","","","","","","","",""
"","null","image-keyboard-response","65","2.0.0","138722","pdlamerbw0c","bear","no","null","stimuli/organized/STATE/USED/Sgrinder1.jpg","","","","","memory","false","state","true","","",""
"","null","html-keyboard-response","66","2.0.0","139725","pdlamerbw0c","bear","no","null","<div style=""font-size:60px; color:black;"">+</div>","","","","","","","","","","",""
"","null","image-keyboard-response","67","2.0.0","142728","pdlamerbw0c","bear","no","null","stimuli/organized/EXEMPLAR/USED/Ecamera1.jpg","","","","","memory","false","exemplar","true","","",""
"","null","html-keyboard-response","68","2.0.0","143729","pdlamerbw0c","bear","no","null","<div style=""font-size:60px; color:black;"">+</div>","","","","","","","","","","",""
"","null","image-keyboard-response","69","2.0.0","146731","pdlamerbw0c","bear","no","null","stimuli/organized/EXEMPLAR/USED/Econe1.jpg","","","","","memory","false","exemplar","true","","",""
"","null","html-keyboard-response","70","2.0.0","147734","pdlamerbw0c","bear","no","null","<div style=""font-size:60px; color:black;"">+</div>","","","","","","","","","","",""
"","null","image-keyboard-response","71","2.0.0","150737","pdlamerbw0c","bear","no","null","stimuli/organized/STATE/USED/Sbriefcase2.jpg","","","","","memory","false","state","true","","",""
"","null","html-keyboard-response","72","2.0.0","151739","pdlamerbw0c","bear","no","null","<div style=""font-size:60px; color:black;"">+</div>","","","","","","","","","","",""
"","null","image-keyboard-response","73","2.0.0","154742","pdlamerbw0c","bear","no","null","stimuli/organized/STATE/USED/Sbelt1.jpg","","","","","memory","false","state","true","","",""
"","null","html-keyboard-response","74","2.0.0","155743","pdlamerbw0c","bear","no","null","<div style=""font-size:60px; color:black;"">+</div>","","","","","","","","","","",""
"","null","image-keyboard-response","75","2.0.0","158748","pdlamerbw0c","bear","no","null","stimuli/organized/STATE/USED/Scrayons1.jpg","","","","","memory","false","state","true","","",""
"","null","html-keyboard-response","76","2.0.0","159751","pdlamerbw0c","bear","no","null","<div style=""font-size:60px; color:black;"">+</div>","","","","","","","","","","",""
"","null","image-keyboard-response","77","2.0.0","162754","pdlamerbw0c","bear","no","null","stimuli/organized/STATE/USED/Sapplesgreenbasket2.jpg","","","","","memory","false","state","true","","",""
"","null","html-keyboard-response","78","2.0.0","163757","pdlamerbw0c","bear","no","null","<div style=""font-size:60px; color:black;"">+</div>","","","","","","","","","","",""
"","null","image-keyboard-response","79","2.0.0","166759","pdlamerbw0c","bear","no","null","stimuli/organized/STATE/USED/Sbox1.jpg","","","","","memory","false","state","true","","",""
"","null","html-keyboard-response","80","2.0.0","167762","pdlamerbw0c","bear","no","null","<div style=""font-size:60px; color:black;"">+</div>","","","","","","","","","","",""
"","null","image-keyboard-response","81","2.0.0","170765","pdlamerbw0c","bear","no","null","stimuli/organized/STATE/USED/Seggs2.jpg","","","","","memory","false","state","true","","",""
"","null","html-keyboard-response","82","2.0.0","171767","pdlamerbw0c","bear","no","null","<div style=""font-size:60px; color:black;"">+</div>","","","","","","","","","","",""
"","null","image-keyboard-response","83","2.0.0","174770","pdlamerbw0c","bear","no","null","stimuli/organized/STATE/USED/Sdishes1.JPG","","","","","memory","false","state","true","","",""
"","null","html-keyboard-response","84","2.0.0","175773","pdlamerbw0c","bear","no","null","<div style=""font-size:60px; color:black;"">+</div>","","","","","","","","","","",""
"","null","image-keyboard-response","85","2.0.0","178775","pdlamerbw0c","bear","no","null","stimuli/organized/STATE/USED/Sbooks2.JPG","","","","","memory","false","state","true","","",""
"","null","html-keyboard-response","86","2.0.0","179776","pdlamerbw0c","bear","no","null","<div style=""font-size:60px; color:black;"">+</div>","","","","","","","","","","",""
"","null","image-keyboard-response","87","2.0.0","182780","pdlamerbw0c","bear","no","null","stimuli/organized/STATE/USED/Sjuiceglass2.JPG","","","","","memory","false","state","true","","",""
"","null","html-keyboard-response","88","2.0.0","183782","pdlamerbw0c","bear","no","null","<div style=""font-size:60px; color:black;"">+</div>","","","","","","","","","","",""
"","null","image-keyboard-response","89","2.0.0","186786","pdlamerbw0c","bear","no","null","stimuli/organized/STATE/USED/Sflask1.jpg","","","","","memory","false","state","true","","",""
"","null","html-keyboard-response","90","2.0.0","187788","pdlamerbw0c","bear","no","null","<div style=""font-size:60px; color:black;"">+</div>","","","","","","","","","","",""
"","null","image-keyboard-response","91","2.0.0","190794","pdlamerbw0c","bear","no","null","stimuli/organized/EXEMPLAR/USED/Ebicycle2.jpg","","","","","memory","false","exemplar","true","","",""
"","null","html-keyboard-response","92","2.0.0","191797","pdlamerbw0c","bear","no","null","<div style=""font-size:60px; color:black;"">+</div>","","","","","","","","","","",""
"","null","image-keyboard-response","93","2.0.0","194801","pdlamerbw0c","bear","no","null","stimuli/organized/EXEMPLAR/USED/Ecabinet2.jpg","","","","","memory","false","exemplar","true","","",""
"","null","html-keyboard-response","94","2.0.0","195804","pdlamerbw0c","bear","no","null","<div style=""font-size:60px; color:black;"">+</div>","","","","","","","","","","",""
"","null","image-keyboard-response","95","2.0.0","198809","pdlamerbw0c","bear","no","null","stimuli/organized/STATE/USED/Sapplesgreenbasket2.jpg","","","","","memory","true","state","false","","",""
"","null","html-keyboard-response","96","2.0.0","199811","pdlamerbw0c","bear","no","null","<div style=""font-size:60px; color:black;"">+</div>","","","","","","","","","","",""
"","null","image-keyboard-response","97","2.0.0","202815","pdlamerbw0c","bear","no","null","stimuli/organized/Novel pairs (tested)/n16bhammer.jpg","","","","","memory","false","novel","true","","",""
"","null","html-keyboard-response","98","2.0.0","203817","pdlamerbw0c","bear","no","null","<div style=""font-size:60px; color:black;"">+</div>","","","","","","","","","","",""
"","null","image-keyboard-response","99","2.0.0","206820","pdlamerbw0c","bear","no","null","stimuli/organized/Novel pairs (tested)/n04bbandaid.jpg","","","","","memory","false","novel","true","","",""
"","null","html-keyboard-response","100","2.0.0","207822","pdlamerbw0c","bear","no","null","<div style=""font-size:60px; color:black;"">+</div>","","","","","","","","","","",""
"","null","image-keyboard-response","101","2.0.0","210825","pdlamerbw0c","bear","no","null","stimuli/organized/STATE/USED/Sphone1.JPG","","","","","memory","false","state","true","","",""
"","null","html-keyboard-response","102","2.0.0","211827","pdlamerbw0c","bear","no","null","<div style=""font-size:60px; color:black;"">+</div>","","","","","","","","","","",""
"","null","image-keyboard-response","103","2.0.0","214831","pdlamerbw0c","bear","no","null","stimuli/organized/STATE/USED/Scookies2.JPG","","","","","memory","false","state","true","","",""
"","null","html-keyboard-response","104","2.0.0","215834","pdlamerbw0c","bear","no","null","<div style=""font-size:60px; color:black;"">+</div>","","","","","","","","","","",""
"","null","image-keyboard-response","105","2.0.0","218837","pdlamerbw0c","bear","no","null","stimuli/organized/Novel pairs (tested)/n12bwatch.jpg","","","","","memory","false","novel","true","","",""
"","null","html-keyboard-response","106","2.0.0","219842","pdlamerbw0c","bear","no","null","<div style=""font-size:60px; color:black;"">+</div>","","","","","","","","","","",""
"","null","image-keyboard-response","107","2.0.0","222845","pdlamerbw0c","bear","no","null","stimuli/organized/STATE/USED/Sscanner2.JPG","","","","","memory","false","state","true","","",""
"","null","html-keyboard-response","108","2.0.0","223847","pdlamerbw0c","bear","no","null","<div style=""font-size:60px; color:black;"">+</div>","","","","","","","","","","",""
"","null","image-keyboard-response","109","2.0.0","226851","pdlamerbw0c","bear","no","null","stimuli/organized/Novel pairs (tested)/n17bweddingdress.jpg","","","","","memory","false","novel","true","","",""
"","null","html-keyboard-response","110","2.0.0","227853","pdlamerbw0c","bear","no","null","<div style=""font-size:60px; color:black;"">+</div>","","","","","","","","","","",""
"","null","image-keyboard-response","111","2.0.0","230856","pdlamerbw0c","bear","no","null","stimuli/organized/STATE/USED/Sbelt1.jpg","","","","","memory","true","state","false","","",""
"","null","html-keyboard-response","112","2.0.0","231858","pdlamerbw0c","bear","no","null","<div style=""font-size:60px; color:black;"">+</div>","","","","","","","","","","",""
"","null","image-keyboard-response","113","2.0.0","234862","pdlamerbw0c","bear","no","null","stimuli/organized/STATE/USED/Sabacus2.jpg","","","","","memory","false","state","true","","",""
"","null","html-keyboard-response","114","2.0.0","235864","pdlamerbw0c","bear","no","null","<div style=""font-size:60px; color:black;"">+</div>","","","","","","","","","","",""
"","null","image-keyboard-response","115","2.0.0","238867","pdlamerbw0c","bear","no","null","stimuli/organized/EXEMPLAR/USED/Eframe2.jpg","","","","","memory","false","exemplar","true","","",""
"","null","html-keyboard-response","116","2.0.0","239870","pdlamerbw0c","bear","no","null","<div style=""font-size:60px; color:black;"">+</div>","","","","","","","","","","",""
"","1499","image-keyboard-response","117","2.0.0","242874","pdlamerbw0c","bear","no"," ","stimuli/organized/STATE/USED/Sgiftbag1.jpg","","","","","memory","true","state","true","","",""
"","null","html-keyboard-response","118","2.0.0","243877","pdlamerbw0c","bear","no","null","<div style=""font-size:60px; color:green;"">+</div>","","","","","","","","","","",""
"","null","image-keyboard-response","119","2.0.0","246879","pdlamerbw0c","bear","no","null","stimuli/organized/EXEMPLAR/USED/Ebread1.jpg","","","","","memory","false","exemplar","true","","",""
"","null","html-keyboard-response","120","2.0.0","247881","pdlamerbw0c","bear","no","null","<div style=""font-size:60px; color:black;"">+</div>","","","","","","","","","","",""
"","null","image-keyboard-response","121","2.0.0","250884","pdlamerbw0c","bear","no","null","stimuli/organized/STATE/USED/Sdresser2.jpg","","","","","memory","false","state","true","","",""
"","null","html-keyboard-response","122","2.0.0","251886","pdlamerbw0c","bear","no","null","<div style=""font-size:60px; color:black;"">+</div>","","","","","","","","","","",""
"","null","image-keyboard-response","123","2.0.0","254888","pdlamerbw0c","bear","no","null","stimuli/organized/STATE/USED/Sdonut1.jpg","","","","","memory","false","state","true","","",""
"","null","html-keyboard-response","124","2.0.0","255890","pdlamerbw0c","bear","no","null","<div style=""font-size:60px; color:black;"">+</div>","","","","","","","","","","",""
"","null","image-keyboard-response","125","2.0.0","258892","pdlamerbw0c","bear","no","null","stimuli/organized/EXEMPLAR/USED/Egoggles2.jpg","","","","","memory","false","exemplar","true","","",""
"","null","html-keyboard-response","126","2.0.0","259895","pdlamerbw0c","bear","no","null","<div style=""font-size:60px; color:black;"">+</div>","","","","","","","","","","",""
"","null","image-keyboard-response","127","2.0.0","262898","pdlamerbw0c","bear","no","null","stimuli/organized/EXEMPLAR/USED/Efan2.jpg","","","","","memory","false","exemplar","true","","",""
"","null","html-keyboard-response","128","2.0.0","263899","pdlamerbw0c","bear","no","null","<div style=""font-size:60px; color:black;"">+</div>","","","","","","","","","","",""
"","null","image-keyboard-response","129","2.0.0","266903","pdlamerbw0c","bear","no","null","stimuli/organized/Novel pairs (tested)/n14acigarette.jpg","","","","","memory","false","novel","true","","",""
"","null","html-keyboard-response","130","2.0.0","267906","pdlamerbw0c","bear","no","null","<div style=""font-size:60px; color:black;"">+</div>","","","","","","","","","","",""
"","null","image-keyboard-response","131","2.0.0","270910","pdlamerbw0c","bear","no","null","stimuli/organized/STATE/USED/Sscissors1.JPG","","","","","memory","false","state","true","","",""
"","null","html-keyboard-response","132","2.0.0","271913","pdlamerbw0c","bear","no","null","<div style=""font-size:60px; color:black;"">+</div>","","","","","","","","","","",""
"","null","image-keyboard-response","133","2.0.0","274916","pdlamerbw0c","bear","no","null","stimuli/organized/STATE/USED/Scoffeemaker1.JPG","","","","","memory","false","state","true","","",""
"","null","html-keyboard-response","134","2.0.0","275919","pdlamerbw0c","bear","no","null","<div style=""font-size:60px; color:black;"">+</div>","","","","","","","","","","",""
"","null","image-keyboard-response","135","2.0.0","278922","pdlamerbw0c","bear","no","null","stimuli/organized/Novel pairs (tested)/n19bhairbrush.jpg","","","","","memory","false","novel","true","","",""
"","null","html-keyboard-response","136","2.0.0","279925","pdlamerbw0c","bear","no","null","<div style=""font-size:60px; color:black;"">+</div>","","","","","","","","","","",""
"","null","image-keyboard-response","137","2.0.0","282927","pdlamerbw0c","bear","no","null","stimuli/organized/EXEMPLAR/USED/Echocolatebar1.jpg","","","","","memory","false","exemplar","true","","",""
"","null","html-keyboard-response","138","2.0.0","283930","pdlamerbw0c","bear","no","null","<div style=""font-size:60px; color:black;"">+</div>","","","","","","","","","","",""
"","null","image-keyboard-response","139","2.0.0","286933","pdlamerbw0c","bear","no","null","stimuli/organized/EXEMPLAR/USED/Egrapes1.jpg","","","","","memory","false","exemplar","true","","",""
"","null","html-keyboard-response","140","2.0.0","287935","pdlamerbw0c","bear","no","null","<div style=""font-size:60px; color:black;"">+</div>","","","","","","","","","","",""
"","null","image-keyboard-response","141","2.0.0","290938","pdlamerbw0c","bear","no","null","stimuli/organized/EXEMPLAR/USED/Ecar1.jpg","","","","","memory","false","exemplar","true","","",""
"","null","html-keyboard-response","142","2.0.0","291940","pdlamerbw0c","bear","no","null","<div style=""font-size:60px; color:black;"">+</div>","","","","","","","","","","",""
"","null","image-keyboard-response","143","2.0.0","294944","pdlamerbw0c","bear","no","null","stimuli/organized/Novel pairs (tested)/n10bturkey.jpg","","","","","memory","false","novel","true","","",""
"","null","html-keyboard-response","144","2.0.0","295946","pdlamerbw0c","bear","no","null","<div style=""font-size:60px; color:black;"">+</div>","","","","","","","","","","",""
"","null","image-keyboard-response","145","2.0.0","298949","pdlamerbw0c","bear","no","null","stimuli/organized/STATE/USED/Scontainer1.JPG","","","","","memory","false","state","true","","",""
"","null","html-keyboard-response","146","2.0.0","299952","pdlamerbw0c","bear","no","null","<div style=""font-size:60px; color:black;"">+</div>","","","","","","","","","","",""
"","null","image-keyboard-response","147","2.0.0","302955","pdlamerbw0c","bear","no","null","stimuli/organized/Novel pairs (tested)/n20bshelf.jpg","","","","","memory","false","novel","true","","",""
"","null","html-keyboard-response","148","2.0.0","303957","pdlamerbw0c","bear","no","null","<div style=""font-size:60px; color:black;"">+</div>","","","","","","","","","","",""
"","null","image-keyboard-response","149","2.0.0","306960","pdlamerbw0c","bear","no","null","stimuli/organized/Novel pairs (tested)/n11bsock.jpg","","","","","memory","false","novel","true","","",""
"","null","html-keyboard-response","150","2.0.0","307963","pdlamerbw0c","bear","no","null","<div style=""font-size:60px; color:black;"">+</div>","","","","","","","","","","",""
"","null","image-keyboard-response","151","2.0.0","310966","pdlamerbw0c","bear","no","null","stimuli/organized/STATE/USED/Sbottles1.JPG","","","","","memory","false","state","true","","",""
"","null","html-keyboard-response","152","2.0.0","311968","pdlamerbw0c","bear","no","null","<div style=""font-size:60px; color:black;"">+</div>","","","","","","","","","","",""
"","null","image-keyboard-response","153","2.0.0","314972","pdlamerbw0c","bear","no","null","stimuli/organized/STATE/USED/Slaptop1.JPG","","","","","memory","false","state","true","","",""
"","null","html-keyboard-response","154","2.0.0","315974","pdlamerbw0c","bear","no","null","<div style=""font-size:60px; color:black;"">+</div>","","","","","","","","","","",""
"","null","image-keyboard-response","155","2.0.0","318977","pdlamerbw0c","bear","no","null","stimuli/organized/EXEMPLAR/USED/Ecabinet2.jpg","","","","","memory","true","exemplar","false","","",""
"","null","html-keyboard-response","156","2.0.0","319980","pdlamerbw0c","bear","no","null","<div style=""font-size:60px; color:black;"">+</div>","","","","","","","","","","",""
"","null","image-keyboard-response","157","2.0.0","322983","pdlamerbw0c","bear","no","null","stimuli/organized/STATE/USED/Schinesefoodbox2.jpg","","","","","memory","false","state","true","","",""
"","null","html-keyboard-response","158","2.0.0","323985","pdlamerbw0c","bear","no","null","<div style=""font-size:60px; color:black;"">+</div>","","","","","","","","","","",""
"","null","image-keyboard-response","159","2.0.0","326988","pdlamerbw0c","bear","no","null","stimuli/organized/EXEMPLAR/USED/Edispenser2.jpg","","","","","memory","false","exemplar","true","","",""
"","null","html-keyboard-response","160","2.0.0","327990","pdlamerbw0c","bear","no","null","<div style=""font-size:60px; color:black;"">+</div>","","","","","","","","","","",""
"","null","image-keyboard-response","161","2.0.0","330992","pdlamerbw0c","bear","no","null","stimuli/organized/STATE/USED/Sbabytoy1.JPG","","","","","memory","false","state","true","","",""
"","null","html-keyboard-response","162","2.0.0","331994","pdlamerbw0c","bear","no","null","<div style=""font-size:60px; color:black;"">+</div>","","","","","","","","","","",""
"","null","image-keyboard-response","163","2.0.0","334997","pdlamerbw0c","bear","no","null","stimuli/organized/Novel pairs (tested)/n08aoven.jpg","","","","","memory","false","novel","true","","",""
"","null","html-keyboard-response","164","2.0.0","336000","pdlamerbw0c","bear","no","null","<div style=""font-size:60px; color:black;"">+</div>","","","","","","","","","","",""
"","2044","image-keyboard-response","165","2.0.0","339003","pdlamerbw0c","bear","no"," ","stimuli/organized/STATE/USED/Spie2.JPG","","","","","memory","true","state","true","","",""
"","6054","html-button-response","166","2.0.0","345060","pdlamerbw0c","bear","no","0","<p>You have completed the study phase.</p><p>Take a short break. Press the button below when you are ready to continue.</p>","","","","","","","","","","",""
"","8043","html-keyboard-response","167","2.0.0","353103","pdlamerbw0c","bear","no"," ","<p>You will now be shown pairs of images.</p><p>Select the image you remember seeing during the study phase.</p><p>Focus on accuracy, not speed.</p><p>Press any key to begin.</p>","","","","","","","","","","",""
"","3894","html-button-response","168","2.0.0","356998","pdlamerbw0c","bear","no","0","Which of these items did you see earlier?","","","","","test","","state","false","stimuli/organized/STATE/USED/Sscanner2.JPG","stimuli/organized/STATE/USED/Sscanner1.JPG","1"
"","2021","html-button-response","169","2.0.0","359021","pdlamerbw0c","bear","no","1","Which of these items did you see earlier?","","","","","test","","state","true","stimuli/organized/STATE/USED/Sbreadbox2.JPG","stimuli/organized/STATE/USED/Sbreadbox1.JPG","1"
"","1880","html-button-response","170","2.0.0","360902","pdlamerbw0c","bear","no","0","Which of these items did you see earlier?","","","","","test","","exemplar","true","stimuli/organized/EXEMPLAR/USED/Ebracelet1.jpg","stimuli/organized/EXEMPLAR/USED/Ebracelet2.jpg","0"
"","3651","html-button-response","171","2.0.0","364554","pdlamerbw0c","bear","no","0","Which of these items did you see earlier?","","","","","test","","state","false","stimuli/organized/STATE/USED/Sjuiceglass2.JPG","stimuli/organized/STATE/USED/Sjuiceglass1.JPG","1"
"","1816","html-button-response","172","2.0.0","366371","pdlamerbw0c","bear","no","1","Which of these items did you see earlier?","","","","","test","","state","true","stimuli/organized/STATE/USED/Sbureau1.JPG","stimuli/organized/STATE/USED/Sbureau2.JPG","1"
"","3077","html-button-response","173","2.0.0","369449","pdlamerbw0c","bear","no","1","Which of these items did you see earlier?","","","","","test","","state","true","stimuli/organized/STATE/USED/Sdrum1.jpg","stimuli/organized/STATE/USED/Sdrum2.jpg","1"
"","1539","html-button-response","174","2.0.0","370990","pdlamerbw0c","bear","no","1","Which of these items did you see earlier?","","","","","test","","state","true","stimuli/organized/STATE/USED/Sbabytoy1.JPG","stimuli/organized/STATE/USED/Sbabytoy2.JPG","1"
"","2306","html-button-response","175","2.0.0","373297","pdlamerbw0c","bear","no","1","Which of these items did you see earlier?","","","","","test","","state","true","stimuli/organized/STATE/USED/Sbooks2.JPG","stimuli/organized/STATE/USED/Sbooks1.JPG","1"
"","1422","html-button-response","176","2.0.0","374720","pdlamerbw0c","bear","no","0","Which of these items did you see earlier?","","","","","test","","state","true","stimuli/organized/STATE/USED/Sbottles1.JPG","stimuli/organized/STATE/USED/Sbottles2.JPG","0"
"","2881","html-button-response","177","2.0.0","377602","pdlamerbw0c","bear","no","1","Which of these items did you see earlier?","","","","","test","","exemplar","false","stimuli/organized/EXEMPLAR/USED/Echisel1.jpg","stimuli/organized/EXEMPLAR/USED/Echisel2.jpg","0"
"","1331","html-button-response","178","2.0.0","378935","pdlamerbw0c","bear","no","0","Which of these items did you see earlier?","","","","","test","","novel","true","stimuli/organized/Novel pairs (tested)/n20bshelf.jpg","stimuli/organized/Novel pairs (tested)/n20acarseat.jpg","0"
"","1027","html-button-response","179","2.0.0","379962","pdlamerbw0c","bear","no","0","Which of these items did you see earlier?","","","","","test","","novel","true","stimuli/organized/Novel pairs (tested)/n17bweddingdress.jpg","stimuli/organized/Novel pairs (tested)/n17avendingmachine.jpg","0"
"","2094","html-button-response","180","2.0.0","382058","pdlamerbw0c","bear","no","1","Which of these items did you see earlier?","","","","","test","","exemplar","true","stimuli/organized/EXEMPLAR/USED/Ebasket1.jpg","stimuli/organized/EXEMPLAR/USED/Ebasket2.jpg","1"
"","1375","html-button-response","181","2.0.0","383434","pdlamerbw0c","bear","no","0","Which of these items did you see earlier?","","","","","test","","novel","true","stimuli/organized/Novel pairs (tested)/n12bwatch.jpg","stimuli/organized/Novel pairs (tested)/n12atelescope.jpg","0"
"","1238","html-button-response","182","2.0.0","384673","pdlamerbw0c","bear","no","1","Which of these items did you see earlier?","","","","","test","","state","true","stimuli/organized/STATE/USED/Sfiretrucktoy1.jpg","stimuli/organized/STATE/USED/Sfiretrucktoy2.jpg","1"
"","1924","html-button-response","183","2.0.0","386598","pdlamerbw0c","bear","no","1","Which of these items did you see earlier?","","","","","test","","novel","true","stimuli/organized/Novel pairs (tested)/n10bturkey.jpg","stimuli/organized/Novel pairs (tested)/n10awindmill.jpg","1"
"","1040","html-button-response","184","2.0.0","387638","pdlamerbw0c","bear","no","0","Which of these items did you see earlier?","","","","","test","","novel","true","stimuli/organized/Novel pairs (tested)/n14acigarette.jpg","stimuli/organized/Novel pairs (tested)/n14bgolfball.jpg","0"
"","1394","html-button-response","185","2.0.0","389033","pdlamerbw0c","bear","no","0","Which of these items did you see earlier?","","","","","test","","state","true","stimuli/organized/STATE/USED/Sapplesgreenbasket2.jpg","stimuli/organized/STATE/USED/Sapplesgreenbasket1.jpg","0"
"","1154","html-button-response","186","2.0.0","390189","pdlamerbw0c","bear","no","1","Which of these items did you see earlier?","","","","","test","","exemplar","true","stimuli/organized/EXEMPLAR/USED/Egrapes1.jpg","stimuli/organized/EXEMPLAR/USED/Egrapes2.jpg","1"
"","1477","html-button-response","187","2.0.0","391667","pdlamerbw0c","bear","no","0","Which of these items did you see earlier?","","","","","test","","exemplar","true","stimuli/organized/EXEMPLAR/USED/Egame1.jpg","stimuli/organized/EXEMPLAR/USED/Egame2.jpg","0"
"","1331","html-button-response","188","2.0.0","392999","pdlamerbw0c","bear","no","1","Which of these items did you see earlier?","","","","","test","","state","true","stimuli/organized/STATE/USED/Sdryer1.jpg","stimuli/organized/STATE/USED/Sdryer2.jpg","1"
"","1835","html-button-response","189","2.0.0","394835","pdlamerbw0c","bear","no","1","Which of these items did you see earlier?","","","","","test","","exemplar","true","stimuli/organized/EXEMPLAR/USED/Ebread1.jpg","stimuli/organized/EXEMPLAR/USED/Ebread2.jpg","1"
"","1242","html-button-response","190","2.0.0","396078","pdlamerbw0c","bear","no","1","Which of these items did you see earlier?","","","","","test","","state","true","stimuli/organized/STATE/USED/Sdresser2.jpg","stimuli/organized/STATE/USED/Sdresser1.jpg","1"
"","3478","html-button-response","191","2.0.0","399557","pdlamerbw0c","bear","no","1","Which of these items did you see earlier?","","","","","test","","state","false","stimuli/organized/STATE/USED/Scookies2.JPG","stimuli/organized/STATE/USED/Scookies1.JPG","0"
"","2080","html-button-response","192","2.0.0","401638","pdlamerbw0c","bear","no","0","Which of these items did you see earlier?","","","","","test","","state","false","stimuli/organized/STATE/USED/Seggs2.jpg","stimuli/organized/STATE/USED/Seggs1.jpg","1"
"","2118","html-button-response","193","2.0.0","403758","pdlamerbw0c","bear","no","0","Which of these items did you see earlier?","","","","","test","","exemplar","true","stimuli/organized/EXEMPLAR/USED/Ecar1.jpg","stimuli/organized/EXEMPLAR/USED/Ecar2.jpg","0"
"","1719","html-button-response","194","2.0.0","405478","pdlamerbw0c","bear","no","0","Which of these items did you see earlier?","","","","","test","","state","false","stimuli/organized/STATE/USED/Shairbrush2.jpg","stimuli/organized/STATE/USED/Shairbrush1.jpg","1"
"","1520","html-button-response","195","2.0.0","406999","pdlamerbw0c","bear","no","1","Which of these items did you see earlier?","","","","","test","","state","false","stimuli/organized/STATE/USED/Sflask1.jpg","stimuli/organized/STATE/USED/Sflask2.jpg","0"
"","3570","html-button-response","196","2.0.0","410569","pdlamerbw0c","bear","no","1","Which of these items did you see earlier?","","","","","test","","state","true","stimuli/organized/STATE/USED/Sabacus2.jpg","stimuli/organized/STATE/USED/Sabacus1.jpg","1"
"","2670","html-button-response","197","2.0.0","413240","pdlamerbw0c","bear","no","0","Which of these items did you see earlier?","","","","","test","","exemplar","true","stimuli/organized/EXEMPLAR/USED/Egoggles2.jpg","stimuli/organized/EXEMPLAR/USED/Egoggles1.jpg","0"
"","1608","html-button-response","198","2.0.0","414848","pdlamerbw0c","bear","no","0","Which of these items did you see earlier?","","","","","test","","novel","true","stimuli/organized/Novel pairs (tested)/n08aoven.jpg","stimuli/organized/Novel pairs (tested)/n08bpaperclip.jpg","0"
"","1133","html-button-response","199","2.0.0","415983","pdlamerbw0c","bear","no","0","Which of these items did you see earlier?","","","","","test","","exemplar","true","stimuli/organized/EXEMPLAR/USED/Echocolatebar1.jpg","stimuli/organized/EXEMPLAR/USED/Echocolatebar2.jpg","0"
"","3184","html-button-response","200","2.0.0","419168","pdlamerbw0c","bear","no","0","Which of these items did you see earlier?","","","","","test","","state","false","stimuli/organized/STATE/USED/Sbox1.jpg","stimuli/organized/STATE/USED/Sbox2.jpg","1"
"","1496","html-button-response","201","2.0.0","420665","pdlamerbw0c","bear","no","1","Which of these items did you see earlier?","","","","","test","","novel","true","stimuli/organized/Novel pairs (tested)/n13bdustpan.jpg","stimuli/organized/Novel pairs (tested)/n13ablueberries.jpg","1"
"","1135","html-button-response","202","2.0.0","421802","pdlamerbw0c","bear","no","0","Which of these items did you see earlier?","","","","","test","","novel","true","stimuli/organized/Novel pairs (tested)/n05abarrel.jpg","stimuli/organized/Novel pairs (tested)/n05bcactus.jpg","0"
"","1299","html-button-response","203","2.0.0","423101","pdlamerbw0c","bear","no","1","Which of these items did you see earlier?","","","","","test","","state","true","stimuli/organized/STATE/USED/Sdonut1.jpg","stimuli/organized/STATE/USED/Sdonut2.jpg","1"
"","4453","html-button-response","204","2.0.0","427555","pdlamerbw0c","bear","no","0","Which of these items did you see earlier?","","","","","test","","state","false","stimuli/organized/STATE/USED/Scontainer1.JPG","stimuli/organized/STATE/USED/Scontainer2.JPG","1"
"","2690","html-button-response","205","2.0.0","430247","pdlamerbw0c","bear","no","1","Which of these items did you see earlier?","","","","","test","","exemplar","false","stimuli/organized/EXEMPLAR/USED/Eglobe2.jpg","stimuli/organized/EXEMPLAR/USED/Eglobe1.jpg","0"
"","3796","html-button-response","206","2.0.0","434045","pdlamerbw0c","bear","no","1","Which of these items did you see earlier?","","","","","test","","state","true","stimuli/organized/STATE/USED/Sgrinder1.jpg","stimuli/organized/STATE/USED/Sgrinder2.jpg","1"
"","1790","html-button-response","207","2.0.0","435837","pdlamerbw0c","bear","no","0","Which of these items did you see earlier?","","","","","test","","state","false","stimuli/organized/STATE/USED/Sdishes1.JPG","stimuli/organized/STATE/USED/Sdishes2.JPG","1"
"","1416","html-button-response","208","2.0.0","437254","pdlamerbw0c","bear","no","1","Which of these items did you see earlier?","","","","","test","","novel","true","stimuli/organized/Novel pairs (tested)/n03acamel.jpg","stimuli/organized/Novel pairs (tested)/n03bbagel.jpg","1"
"","1112","html-button-response","209","2.0.0","438367","pdlamerbw0c","bear","no","1","Which of these items did you see earlier?","","","","","test","","novel","true","stimuli/organized/Novel pairs (tested)/n02bsafetypin.jpg","stimuli/organized/Novel pairs (tested)/n02aaxe.jpg","1"
"","1050","html-button-response","210","2.0.0","439417","pdlamerbw0c","bear","no","1","Which of these items did you see earlier?","","","","","test","","state","true","stimuli/organized/STATE/USED/Scoffeemaker1.JPG","stimuli/organized/STATE/USED/Scoffeemaker2.JPG","1"
"","2460","html-button-response","211","2.0.0","441878","pdlamerbw0c","bear","no","0","Which of these items did you see earlier?","","","","","test","","exemplar","true","stimuli/organized/EXEMPLAR/USED/Ecabinet2.jpg","stimuli/organized/EXEMPLAR/USED/Ecabinet1.jpg","0"
"","1197","html-button-response","212","2.0.0","443077","pdlamerbw0c","bear","no","0","Which of these items did you see earlier?","","","","","test","","novel","true","stimuli/organized/Novel pairs (tested)/n15bfootball.jpg","stimuli/organized/Novel pairs (tested)/n15aspiderweb.jpg","0"
"","1307","html-button-response","213","2.0.0","444386","pdlamerbw0c","bear","no","1","Which of these items did you see earlier?","","","","","test","","novel","true","stimuli/organized/Novel pairs (tested)/n09apenguin.jpg","stimuli/organized/Novel pairs (tested)/n09bsaddle.jpg","1"
"","1279","html-button-response","214","2.0.0","445666","pdlamerbw0c","bear","no","1","Which of these items did you see earlier?","","","","","test","","novel","true","stimuli/organized/Novel pairs (tested)/n19bhairbrush.jpg","stimuli/organized/Novel pairs (tested)/n19apickle.jpg","1"
"","2212","html-button-response","215","2.0.0","447879","pdlamerbw0c","bear","no","1","Which of these items did you see earlier?","","","","","test","","exemplar","true","stimuli/organized/EXEMPLAR/USED/Ebicycle2.jpg","stimuli/organized/EXEMPLAR/USED/Ebicycle1.jpg","1"
"","1581","html-button-response","216","2.0.0","449462","pdlamerbw0c","bear","no","1","Which of these items did you see earlier?","","","","","test","","exemplar","true","stimuli/organized/EXEMPLAR/USED/Eframe2.jpg","stimuli/organized/EXEMPLAR/USED/Eframe1.jpg","1"
"","1184","html-button-response","217","2.0.0","450647","pdlamerbw0c","bear","no","1","Which of these items did you see earlier?","","","","","test","","exemplar","true","stimuli/organized/EXEMPLAR/USED/Efan2.jpg","stimuli/organized/EXEMPLAR/USED/Efan1.jpg","1"
"","1022","html-button-response","218","2.0.0","451670","pdlamerbw0c","bear","no","0","Which of these items did you see earlier?","","","","","test","","novel","true","stimuli/organized/Novel pairs (tested)/n04bbandaid.jpg","stimuli/organized/Novel pairs (tested)/n04ayarn.jpg","0"
"","1868","html-button-response","219","2.0.0","453539","pdlamerbw0c","bear","no","1","Which of these items did you see earlier?","","","","","test","","exemplar","true","stimuli/organized/EXEMPLAR/USED/Econe1.jpg","stimuli/organized/EXEMPLAR/USED/Econe2.jpg","1"
"","1163","html-button-response","220","2.0.0","454702","pdlamerbw0c","bear","no","1","Which of these items did you see earlier?","","","","","test","","novel","true","stimuli/organized/Novel pairs (tested)/n16bhammer.jpg","stimuli/organized/Novel pairs (tested)/n16abananas.jpg","1"
"","1004","html-button-response","221","2.0.0","455708","pdlamerbw0c","bear","no","0","Which of these items did you see earlier?","","","","","test","","novel","true","stimuli/organized/Novel pairs (tested)/n01bcoin.jpg","stimuli/organized/Novel pairs (tested)/n01aladybug.jpg","0"
"","1647","html-button-response","222","2.0.0","457356","pdlamerbw0c","bear","no","0","Which of these items did you see earlier?","","","","","test","","state","true","stimuli/organized/STATE/USED/Spotpan1.JPG","stimuli/organized/STATE/USED/Spotpan2.JPG","0"
"","1686","html-button-response","223","2.0.0","459043","pdlamerbw0c","bear","no","1","Which of these items did you see earlier?","","","","","test","","state","true","stimuli/organized/STATE/USED/Sbelt1.jpg","stimuli/organized/STATE/USED/Sbelt2.jpg","1"
"","2371","html-button-response","224","2.0.0","461414","pdlamerbw0c","bear","no","1","Which of these items did you see earlier?","","","","","test","","state","true","stimuli/organized/STATE/USED/Scrayons1.jpg","stimuli/organized/STATE/USED/Scrayons2.jpg","1"
"","1644","html-button-response","225","2.0.0","463059","pdlamerbw0c","bear","no","0","Which of these items did you see earlier?","","","","","test","","exemplar","true","stimuli/organized/EXEMPLAR/USED/Ecamera1.jpg","stimuli/organized/EXEMPLAR/USED/Ecamera2.jpg","0"
"","1052","html-button-response","226","2.0.0","464112","pdlamerbw0c","bear","no","1","Which of these items did you see earlier?","","","","","test","","state","true","stimuli/organized/STATE/USED/Spie2.JPG","stimuli/organized/STATE/USED/Spie1.JPG","1"
"","1792","html-button-response","227","2.0.0","465905","pdlamerbw0c","bear","no","1","Which of these items did you see earlier?","","","","","test","","novel","true","stimuli/organized/Novel pairs (tested)/n06acane.jpg","stimuli/organized/Novel pairs (tested)/n06blipstick.jpg","1"
"","1436","html-button-response","228","2.0.0","467342","pdlamerbw0c","bear","no","1","Which of these items did you see earlier?","","","","","test","","state","false","stimuli/organized/STATE/USED/Schinesefoodbox2.jpg","stimuli/organized/STATE/USED/Schinesefoodbox1.jpg","0"
"","1523","html-button-response","229","2.0.0","468867","pdlamerbw0c","bear","no","1","Which of these items did you see earlier?","","","","","test","","exemplar","true","stimuli/organized/EXEMPLAR/USED/Edispenser2.jpg","stimuli/organized/EXEMPLAR/USED/Edispenser1.jpg","1"
"","1440","html-button-response","230","2.0.0","470308","pdlamerbw0c","bear","no","0","Which of these items did you see earlier?","","","","","test","","state","false","stimuli/organized/STATE/USED/Sbriefcase2.jpg","stimuli/organized/STATE/USED/Sbriefcase1.jpg","1"
"","863","html-button-response","231","2.0.0","471172","pdlamerbw0c","bear","no","1","Which of these items did you see earlier?","","","","","test","","novel","true","stimuli/organized/Novel pairs (tested)/n18apretzel.jpg","stimuli/organized/Novel pairs (tested)/n18bsnail.jpg","1"
"","863","html-button-response","232","2.0.0","472036","pdlamerbw0c","bear","no","0","Which of these items did you see earlier?","","","","","test","","novel","true","stimuli/organized/Novel pairs (tested)/n11bsock.jpg","stimuli/organized/Novel pairs (tested)/n11abatteries.jpg","0"
"","3219","html-button-response","233","2.0.0","475256","pdlamerbw0c","bear","no","0","Which of these items did you see earlier?","","","","","test","","state","true","stimuli/organized/STATE/USED/Sbrushes2.jpg","stimuli/organized/STATE/USED/Sbrushes1.jpg","0"
"","1063","html-button-response","234","2.0.0","476320","pdlamerbw0c","bear","no","0","Which of these items did you see earlier?","","","","","test","","state","true","stimuli/organized/STATE/USED/Sscissors1.JPG","stimuli/organized/STATE/USED/Sscissors2.JPG","0"
"","1706","html-button-response","235","2.0.0","478028","pdlamerbw0c","bear","no","1","Which of these items did you see earlier?","","","","","test","","state","true","stimuli/organized/STATE/USED/Sphone1.JPG","stimuli/organized/STATE/USED/Sphone2.JPG","1"
"","2023","html-button-response","236","2.0.0","480051","pdlamerbw0c","bear","no","0","Which of these items did you see earlier?","","","","","test","","exemplar","true","stimuli/organized/EXEMPLAR/USED/Efeather1.jpg","stimuli/organized/EXEMPLAR/USED/Efeather2.jpg","0"
"","1356","html-button-response","237","2.0.0","481408","pdlamerbw0c","bear","no","1","Which of these items did you see earlier?","","","","","test","","exemplar","true","stimuli/organized/EXEMPLAR/USED/Ebell2.jpg","stimuli/organized/EXEMPLAR/USED/Ebell1.jpg","1"
"","1022","html-button-response","238","2.0.0","482431","pdlamerbw0c","bear","no","1","Which of these items did you see earlier?","","","","","test","","state","true","stimuli/organized/STATE/USED/Sgiftbag1.jpg","stimuli/organized/STATE/USED/Sgiftbag2.jpg","1"
"","2289","html-button-response","239","2.0.0","484721","pdlamerbw0c","bear","no","0","Which of these items did you see earlier?","","","","","test","","state","true","stimuli/organized/STATE/USED/Sdie2.jpg","stimuli/organized/STATE/USED/Sdie1.jpg","0"
"","1239","html-button-response","240","2.0.0","485961","pdlamerbw0c","bear","no","0","Which of these items did you see earlier?","","","","","test","","novel","true","stimuli/organized/Novel pairs (tested)/n07bswimmingpool.jpg","stimuli/organized/Novel pairs (tested)/n07apotato.jpg","0"
"","2685","html-button-response","241","2.0.0","488647","pdlamerbw0c","bear","no","0","Which of these items did you see earlier?","","","","","test","","state","true","stimuli/organized/STATE/USED/Slaptop1.JPG","stimuli/organized/STATE/USED/Slaptop2.JPG","0"
"","6089","html-button-response","242","2.0.0","494737","pdlamerbw0c","bear","no","0","Which of these items did you see earlier?","","","","","test","","exemplar","true","stimuli/organized/EXEMPLAR/USED/Ecalculator2.jpg","stimuli/organized/EXEMPLAR/USED/Ecalculator1.jpg","0"
"","1276","html-button-response","243","2.0.0","496014","pdlamerbw0c","bear","no","0","Which of these items did you see earlier?","","","","","test","","state","true","stimuli/organized/STATE/USED/Sgiftbox2.jpg","stimuli/organized/STATE/USED/Sgiftbox1.jpg","0"
"","8993","survey-html-form","244","2.0.0","505010","pdlamerbw0c","bear","no","{""age"":""20"",""gender"":""female"",""memory_experiment_experience"":""no""}","","","","","","","","","","","",""
"","29135","survey-text","245","2.0.0","534146","pdlamerbw0c","bear","no","{""task_guess"":""a humans max mental capacity for short term memory storage""}","","","","","","","","","","","",""
"","2363","survey-text","246","2.0.0","536510","pdlamerbw0c","bear","no","{""technical_issues_question"":""no""}","","","","","","","","","","","",""
