"success","rt","trial_type","trial_index","plugin_version","time_elapsed","random_id","participant","technical_issues","response","stimulus","timeout","failed_images","failed_audio","failed_video","trial_phase","is_repeat","test_type","correct","old_image","new_image","correct_position"
"true","1523","fullscreen","0","null","2529","pgdyqpeahry","meerkat","none","","","","","","","","","","","","",""
"","1853","survey-text","1","2.0.0","4388","pgdyqpeahry","meerkat","none","{""participant_id"":""meerkat""}","","","","","","","","","","","",""
"","5160","html-keyboard-response","2","2.0.0","9550","pgdyqpeahry","meerkat","none"," ","
      <p>In this experiment, a series of objects will be displayed.</p>
      <p>Try to memorize as much as possible about the objects.</p>
      <p>If the image is a <strong> repeat</strong>, press the SPACEBAR.</p>
      <p>Press any key to begin.</p>
    ","","","","","","","","","","",""
"true","","preload","3","2.0.0","15232","pgdyqpeahry","meerkat","none","","","false","[]","[]","[]","","","","","","",""
"","null","html-keyboard-response","4","2.0.0","16236","pgdyqpeahry","meerkat","none","null","<div style=""font-size:60px;"">+</div>","","","","","","","","","","",""
"","null","image-keyboard-response","5","2.0.0","19242","pgdyqpeahry","meerkat","none","null","stimuli/organized/Novel pairs (tested)/n16bhammer.jpg","","","","","memory","false","novel","true","","",""
"","null","html-keyboard-response","6","2.0.0","20245","pgdyqpeahry","meerkat","none","null","<div style=""font-size:60px; color:black;"">+</div>","","","","","","","","","","",""
"","null","image-keyboard-response","7","2.0.0","23248","pgdyqpeahry","meerkat","none","null","stimuli/organized/Novel pairs (tested)/n06blipstick.jpg","","","","","memory","false","novel","true","","",""
"","null","html-keyboard-response","8","2.0.0","24251","pgdyqpeahry","meerkat","none","null","<div style=""font-size:60px; color:black;"">+</div>","","","","","","","","","","",""
"","null","image-keyboard-response","9","2.0.0","27255","pgdyqpeahry","meerkat","none","null","stimuli/organized/Novel pairs (tested)/n09apenguin.jpg","","","","","memory","false","novel","true","","",""
"","null","html-keyboard-response","10","2.0.0","28257","pgdyqpeahry","meerkat","none","null","<div style=""font-size:60px; color:black;"">+</div>","","","","","","","","","","",""
"","null","image-keyboard-response","11","2.0.0","31259","pgdyqpeahry","meerkat","none","null","stimuli/organized/STATE/USED/Sdresser1.jpg","","","","","memory","false","state","true","","",""
"","null","html-keyboard-response","12","2.0.0","32262","pgdyqpeahry","meerkat","none","null","<div style=""font-size:60px; color:black;"">+</div>","","","","","","","","","","",""
"","null","image-keyboard-response","13","2.0.0","35265","pgdyqpeahry","meerkat","none","null","stimuli/organized/STATE/USED/Sgiftbox2.jpg","","","","","memory","false","state","true","","",""
"","null","html-keyboard-response","14","2.0.0","36268","pgdyqpeahry","meerkat","none","null","<div style=""font-size:60px; color:black;"">+</div>","","","","","","","","","","",""
"","null","image-keyboard-response","15","2.0.0","39271","pgdyqpeahry","meerkat","none","null","stimuli/organized/Novel pairs (tested)/n11abatteries.jpg","","","","","memory","false","novel","true","","",""
"","null","html-keyboard-response","16","2.0.0","40274","pgdyqpeahry","meerkat","none","null","<div style=""font-size:60px; color:black;"">+</div>","","","","","","","","","","",""
"","null","image-keyboard-response","17","2.0.0","43277","pgdyqpeahry","meerkat","none","null","stimuli/organized/EXEMPLAR/USED/Ebell1.jpg","","","","","memory","false","exemplar","true","","",""
"","null","html-keyboard-response","18","2.0.0","44279","pgdyqpeahry","meerkat","none","null","<div style=""font-size:60px; color:black;"">+</div>","","","","","","","","","","",""
"","null","image-keyboard-response","19","2.0.0","47282","pgdyqpeahry","meerkat","none","null","stimuli/organized/EXEMPLAR/USED/Egame1.jpg","","","","","memory","false","exemplar","true","","",""
"","null","html-keyboard-response","20","2.0.0","48285","pgdyqpeahry","meerkat","none","null","<div style=""font-size:60px; color:black;"">+</div>","","","","","","","","","","",""
"","null","image-keyboard-response","21","2.0.0","51288","pgdyqpeahry","meerkat","none","null","stimuli/organized/EXEMPLAR/USED/Edispenser2.jpg","","","","","memory","false","exemplar","true","","",""
"","null","html-keyboard-response","22","2.0.0","52291","pgdyqpeahry","meerkat","none","null","<div style=""font-size:60px; color:black;"">+</div>","","","","","","","","","","",""
"","null","image-keyboard-response","23","2.0.0","55293","pgdyqpeahry","meerkat","none","null","stimuli/organized/Novel pairs (tested)/n18apretzel.jpg","","","","","memory","false","novel","true","","",""
"","null","html-keyboard-response","24","2.0.0","56296","pgdyqpeahry","meerkat","none","null","<div style=""font-size:60px; color:black;"">+</div>","","","","","","","","","","",""
"","null","image-keyboard-response","25","2.0.0","59298","pgdyqpeahry","meerkat","none","null","stimuli/organized/STATE/USED/Sbelt1.jpg","","","","","memory","false","state","true","","",""
"","null","html-keyboard-response","26","2.0.0","60301","pgdyqpeahry","meerkat","none","null","<div style=""font-size:60px; color:black;"">+</div>","","","","","","","","","","",""
"","null","image-keyboard-response","27","2.0.0","63304","pgdyqpeahry","meerkat","none","null","stimuli/organized/STATE/USED/Sdie2.jpg","","","","","memory","false","state","true","","",""
"","null","html-keyboard-response","28","2.0.0","64307","pgdyqpeahry","meerkat","none","null","<div style=""font-size:60px; color:black;"">+</div>","","","","","","","","","","",""
"","null","image-keyboard-response","29","2.0.0","67310","pgdyqpeahry","meerkat","none","null","stimuli/organized/STATE/USED/Sfiretrucktoy2.jpg","","","","","memory","false","state","true","","",""
"","null","html-keyboard-response","30","2.0.0","68313","pgdyqpeahry","meerkat","none","null","<div style=""font-size:60px; color:black;"">+</div>","","","","","","","","","","",""
"","null","image-keyboard-response","31","2.0.0","71316","pgdyqpeahry","meerkat","none","null","stimuli/organized/STATE/USED/Spie2.JPG","","","","","memory","false","state","true","","",""
"","null","html-keyboard-response","32","2.0.0","72319","pgdyqpeahry","meerkat","none","null","<div style=""font-size:60px; color:black;"">+</div>","","","","","","","","","","",""
"","975","image-keyboard-response","33","2.0.0","75323","pgdyqpeahry","meerkat","none"," ","stimuli/organized/EXEMPLAR/USED/Ebell1.jpg","","","","","memory","true","exemplar","true","","",""
"","null","html-keyboard-response","34","2.0.0","76326","pgdyqpeahry","meerkat","none","null","<div style=""font-size:60px; color:green;"">+</div>","","","","","","","","","","",""
"","null","image-keyboard-response","35","2.0.0","79328","pgdyqpeahry","meerkat","none","null","stimuli/organized/Novel pairs (tested)/n17avendingmachine.jpg","","","","","memory","false","novel","true","","",""
"","null","html-keyboard-response","36","2.0.0","80331","pgdyqpeahry","meerkat","none","null","<div style=""font-size:60px; color:black;"">+</div>","","","","","","","","","","",""
"","null","image-keyboard-response","37","2.0.0","83334","pgdyqpeahry","meerkat","none","null","stimuli/organized/STATE/USED/Scrayons1.jpg","","","","","memory","false","state","true","","",""
"","null","html-keyboard-response","38","2.0.0","84337","pgdyqpeahry","meerkat","none","null","<div style=""font-size:60px; color:black;"">+</div>","","","","","","","","","","",""
"","null","image-keyboard-response","39","2.0.0","87340","pgdyqpeahry","meerkat","none","null","stimuli/organized/STATE/USED/Sbooks1.JPG","","","","","memory","false","state","true","","",""
"","null","html-keyboard-response","40","2.0.0","88343","pgdyqpeahry","meerkat","none","null","<div style=""font-size:60px; color:black;"">+</div>","","","","","","","","","","",""
"","null","image-keyboard-response","41","2.0.0","91347","pgdyqpeahry","meerkat","none","null","stimuli/organized/STATE/USED/Seggs2.jpg","","","","","memory","false","state","true","","",""
"","null","html-keyboard-response","42","2.0.0","92350","pgdyqpeahry","meerkat","none","null","<div style=""font-size:60px; color:black;"">+</div>","","","","","","","","","","",""
"","null","image-keyboard-response","43","2.0.0","95353","pgdyqpeahry","meerkat","none","null","stimuli/organized/STATE/USED/Sphone1.JPG","","","","","memory","false","state","true","","",""
"","null","html-keyboard-response","44","2.0.0","96356","pgdyqpeahry","meerkat","none","null","<div style=""font-size:60px; color:black;"">+</div>","","","","","","","","","","",""
"","null","image-keyboard-response","45","2.0.0","99359","pgdyqpeahry","meerkat","none","null","stimuli/organized/STATE/USED/Sjuiceglass2.JPG","","","","","memory","false","state","true","","",""
"","null","html-keyboard-response","46","2.0.0","100362","pgdyqpeahry","meerkat","none","null","<div style=""font-size:60px; color:black;"">+</div>","","","","","","","","","","",""
"","null","image-keyboard-response","47","2.0.0","103365","pgdyqpeahry","meerkat","none","null","stimuli/organized/EXEMPLAR/USED/Echocolatebar1.jpg","","","","","memory","false","exemplar","true","","",""
"","null","html-keyboard-response","48","2.0.0","104368","pgdyqpeahry","meerkat","none","null","<div style=""font-size:60px; color:black;"">+</div>","","","","","","","","","","",""
"","null","image-keyboard-response","49","2.0.0","107371","pgdyqpeahry","meerkat","none","null","stimuli/organized/STATE/USED/Sbox1.jpg","","","","","memory","false","state","true","","",""
"","null","html-keyboard-response","50","2.0.0","108373","pgdyqpeahry","meerkat","none","null","<div style=""font-size:60px; color:black;"">+</div>","","","","","","","","","","",""
"","null","image-keyboard-response","51","2.0.0","111376","pgdyqpeahry","meerkat","none","null","stimuli/organized/Novel pairs (tested)/n07apotato.jpg","","","","","memory","false","novel","true","","",""
"","null","html-keyboard-response","52","2.0.0","112379","pgdyqpeahry","meerkat","none","null","<div style=""font-size:60px; color:black;"">+</div>","","","","","","","","","","",""
"","null","image-keyboard-response","53","2.0.0","115382","pgdyqpeahry","meerkat","none","null","stimuli/organized/EXEMPLAR/USED/Eframe1.jpg","","","","","memory","false","exemplar","true","","",""
"","null","html-keyboard-response","54","2.0.0","116385","pgdyqpeahry","meerkat","none","null","<div style=""font-size:60px; color:black;"">+</div>","","","","","","","","","","",""
"","null","image-keyboard-response","55","2.0.0","119388","pgdyqpeahry","meerkat","none","null","stimuli/organized/STATE/USED/Sbriefcase1.jpg","","","","","memory","false","state","true","","",""
"","null","html-keyboard-response","56","2.0.0","120391","pgdyqpeahry","meerkat","none","null","<div style=""font-size:60px; color:black;"">+</div>","","","","","","","","","","",""
"","null","image-keyboard-response","57","2.0.0","123394","pgdyqpeahry","meerkat","none","null","stimuli/organized/EXEMPLAR/USED/Efan2.jpg","","","","","memory","false","exemplar","true","","",""
"","null","html-keyboard-response","58","2.0.0","124397","pgdyqpeahry","meerkat","none","null","<div style=""font-size:60px; color:black;"">+</div>","","","","","","","","","","",""
"","null","image-keyboard-response","59","2.0.0","127400","pgdyqpeahry","meerkat","none","null","stimuli/organized/STATE/USED/Sscissors2.JPG","","","","","memory","false","state","true","","",""
"","null","html-keyboard-response","60","2.0.0","128402","pgdyqpeahry","meerkat","none","null","<div style=""font-size:60px; color:black;"">+</div>","","","","","","","","","","",""
"","null","image-keyboard-response","61","2.0.0","131405","pgdyqpeahry","meerkat","none","null","stimuli/organized/EXEMPLAR/USED/Ebasket1.jpg","","","","","memory","false","exemplar","true","","",""
"","null","html-keyboard-response","62","2.0.0","132409","pgdyqpeahry","meerkat","none","null","<div style=""font-size:60px; color:black;"">+</div>","","","","","","","","","","",""
"","null","image-keyboard-response","63","2.0.0","135412","pgdyqpeahry","meerkat","none","null","stimuli/organized/STATE/USED/Sgiftbag2.jpg","","","","","memory","false","state","true","","",""
"","null","html-keyboard-response","64","2.0.0","136415","pgdyqpeahry","meerkat","none","null","<div style=""font-size:60px; color:black;"">+</div>","","","","","","","","","","",""
"","null","image-keyboard-response","65","2.0.0","139418","pgdyqpeahry","meerkat","none","null","stimuli/organized/STATE/USED/Sscanner1.JPG","","","","","memory","false","state","true","","",""
"","null","html-keyboard-response","66","2.0.0","140420","pgdyqpeahry","meerkat","none","null","<div style=""font-size:60px; color:black;"">+</div>","","","","","","","","","","",""
"","null","image-keyboard-response","67","2.0.0","143423","pgdyqpeahry","meerkat","none","null","stimuli/organized/EXEMPLAR/USED/Ebicycle1.jpg","","","","","memory","false","exemplar","true","","",""
"","null","html-keyboard-response","68","2.0.0","144426","pgdyqpeahry","meerkat","none","null","<div style=""font-size:60px; color:black;"">+</div>","","","","","","","","","","",""
"","null","image-keyboard-response","69","2.0.0","147429","pgdyqpeahry","meerkat","none","null","stimuli/organized/EXEMPLAR/USED/Efeather2.jpg","","","","","memory","false","exemplar","true","","",""
"","null","html-keyboard-response","70","2.0.0","148432","pgdyqpeahry","meerkat","none","null","<div style=""font-size:60px; color:black;"">+</div>","","","","","","","","","","",""
"","null","image-keyboard-response","71","2.0.0","151435","pgdyqpeahry","meerkat","none","null","stimuli/organized/STATE/USED/Sflask1.jpg","","","","","memory","false","state","true","","",""
"","null","html-keyboard-response","72","2.0.0","152438","pgdyqpeahry","meerkat","none","null","<div style=""font-size:60px; color:black;"">+</div>","","","","","","","","","","",""
"","null","image-keyboard-response","73","2.0.0","155441","pgdyqpeahry","meerkat","none","null","stimuli/organized/EXEMPLAR/USED/Ecamera1.jpg","","","","","memory","false","exemplar","true","","",""
"","null","html-keyboard-response","74","2.0.0","156443","pgdyqpeahry","meerkat","none","null","<div style=""font-size:60px; color:black;"">+</div>","","","","","","","","","","",""
"","null","image-keyboard-response","75","2.0.0","159446","pgdyqpeahry","meerkat","none","null","stimuli/organized/STATE/USED/Sdrum2.jpg","","","","","memory","false","state","true","","",""
"","null","html-keyboard-response","76","2.0.0","160448","pgdyqpeahry","meerkat","none","null","<div style=""font-size:60px; color:black;"">+</div>","","","","","","","","","","",""
"","null","image-keyboard-response","77","2.0.0","163451","pgdyqpeahry","meerkat","none","null","stimuli/organized/Novel pairs (tested)/n14bgolfball.jpg","","","","","memory","false","novel","true","","",""
"","null","html-keyboard-response","78","2.0.0","164454","pgdyqpeahry","meerkat","none","null","<div style=""font-size:60px; color:black;"">+</div>","","","","","","","","","","",""
"","null","image-keyboard-response","79","2.0.0","167457","pgdyqpeahry","meerkat","none","null","stimuli/organized/Novel pairs (tested)/n19bhairbrush.jpg","","","","","memory","false","novel","true","","",""
"","null","html-keyboard-response","80","2.0.0","168460","pgdyqpeahry","meerkat","none","null","<div style=""font-size:60px; color:black;"">+</div>","","","","","","","","","","",""
"","null","image-keyboard-response","81","2.0.0","171463","pgdyqpeahry","meerkat","none","null","stimuli/organized/STATE/USED/Sbrushes2.jpg","","","","","memory","false","state","true","","",""
"","null","html-keyboard-response","82","2.0.0","172466","pgdyqpeahry","meerkat","none","null","<div style=""font-size:60px; color:black;"">+</div>","","","","","","","","","","",""
"","null","image-keyboard-response","83","2.0.0","175469","pgdyqpeahry","meerkat","none","null","stimuli/organized/STATE/USED/Sdonut1.jpg","","","","","memory","false","state","true","","",""
"","null","html-keyboard-response","84","2.0.0","176472","pgdyqpeahry","meerkat","none","null","<div style=""font-size:60px; color:black;"">+</div>","","","","","","","","","","",""
"","null","image-keyboard-response","85","2.0.0","179475","pgdyqpeahry","meerkat","none","null","stimuli/organized/STATE/USED/Shairbrush2.jpg","","","","","memory","false","state","true","","",""
"","null","html-keyboard-response","86","2.0.0","180478","pgdyqpeahry","meerkat","none","null","<div style=""font-size:60px; color:black;"">+</div>","","","","","","","","","","",""
"","987","image-keyboard-response","87","2.0.0","183481","pgdyqpeahry","meerkat","none"," ","stimuli/organized/STATE/USED/Seggs2.jpg","","","","","memory","true","state","true","","",""
"","null","html-keyboard-response","88","2.0.0","184484","pgdyqpeahry","meerkat","none","null","<div style=""font-size:60px; color:green;"">+</div>","","","","","","","","","","",""
"","null","image-keyboard-response","89","2.0.0","187487","pgdyqpeahry","meerkat","none","null","stimuli/organized/EXEMPLAR/USED/Echisel1.jpg","","","","","memory","false","exemplar","true","","",""
"","null","html-keyboard-response","90","2.0.0","188490","pgdyqpeahry","meerkat","none","null","<div style=""font-size:60px; color:black;"">+</div>","","","","","","","","","","",""
"","null","image-keyboard-response","91","2.0.0","191494","pgdyqpeahry","meerkat","none","null","stimuli/organized/Novel pairs (tested)/n12bwatch.jpg","","","","","memory","false","novel","true","","",""
"","null","html-keyboard-response","92","2.0.0","192497","pgdyqpeahry","meerkat","none","null","<div style=""font-size:60px; color:black;"">+</div>","","","","","","","","","","",""
"","1811","image-keyboard-response","93","2.0.0","195499","pgdyqpeahry","meerkat","none"," ","stimuli/organized/EXEMPLAR/USED/Ebread2.jpg","","","","","memory","false","exemplar","false","","",""
"","null","html-keyboard-response","94","2.0.0","196502","pgdyqpeahry","meerkat","none","null","<div style=""font-size:60px; color:red;"">+</div>","","","","","","","","","","",""
"","null","image-keyboard-response","95","2.0.0","199505","pgdyqpeahry","meerkat","none","null","stimuli/organized/Novel pairs (tested)/n10bturkey.jpg","","","","","memory","false","novel","true","","",""
"","null","html-keyboard-response","96","2.0.0","200508","pgdyqpeahry","meerkat","none","null","<div style=""font-size:60px; color:black;"">+</div>","","","","","","","","","","",""
"","null","image-keyboard-response","97","2.0.0","203511","pgdyqpeahry","meerkat","none","null","stimuli/organized/Novel pairs (tested)/n05abarrel.jpg","","","","","memory","false","novel","true","","",""
"","null","html-keyboard-response","98","2.0.0","204514","pgdyqpeahry","meerkat","none","null","<div style=""font-size:60px; color:black;"">+</div>","","","","","","","","","","",""
"","null","image-keyboard-response","99","2.0.0","207519","pgdyqpeahry","meerkat","none","null","stimuli/organized/STATE/USED/Sapplesgreenbasket1.jpg","","","","","memory","false","state","true","","",""
"","null","html-keyboard-response","100","2.0.0","208523","pgdyqpeahry","meerkat","none","null","<div style=""font-size:60px; color:black;"">+</div>","","","","","","","","","","",""
"","null","image-keyboard-response","101","2.0.0","211526","pgdyqpeahry","meerkat","none","null","stimuli/organized/STATE/USED/Scontainer2.JPG","","","","","memory","false","state","true","","",""
"","null","html-keyboard-response","102","2.0.0","212528","pgdyqpeahry","meerkat","none","null","<div style=""font-size:60px; color:black;"">+</div>","","","","","","","","","","",""
"","null","image-keyboard-response","103","2.0.0","215530","pgdyqpeahry","meerkat","none","null","stimuli/organized/Novel pairs (tested)/n02aaxe.jpg","","","","","memory","false","novel","true","","",""
"","null","html-keyboard-response","104","2.0.0","216532","pgdyqpeahry","meerkat","none","null","<div style=""font-size:60px; color:black;"">+</div>","","","","","","","","","","",""
"","null","image-keyboard-response","105","2.0.0","219535","pgdyqpeahry","meerkat","none","null","stimuli/organized/STATE/USED/Sbureau2.JPG","","","","","memory","false","state","true","","",""
"","null","html-keyboard-response","106","2.0.0","220537","pgdyqpeahry","meerkat","none","null","<div style=""font-size:60px; color:black;"">+</div>","","","","","","","","","","",""
"","null","image-keyboard-response","107","2.0.0","223541","pgdyqpeahry","meerkat","none","null","stimuli/organized/Novel pairs (tested)/n13bdustpan.jpg","","","","","memory","false","novel","true","","",""
"","null","html-keyboard-response","108","2.0.0","224544","pgdyqpeahry","meerkat","none","null","<div style=""font-size:60px; color:black;"">+</div>","","","","","","","","","","",""
"","null","image-keyboard-response","109","2.0.0","227547","pgdyqpeahry","meerkat","none","null","stimuli/organized/EXEMPLAR/USED/Ebracelet1.jpg","","","","","memory","false","exemplar","true","","",""
"","null","html-keyboard-response","110","2.0.0","228549","pgdyqpeahry","meerkat","none","null","<div style=""font-size:60px; color:black;"">+</div>","","","","","","","","","","",""
"","null","image-keyboard-response","111","2.0.0","231552","pgdyqpeahry","meerkat","none","null","stimuli/organized/STATE/USED/Sbreadbox1.JPG","","","","","memory","false","state","true","","",""
"","null","html-keyboard-response","112","2.0.0","232555","pgdyqpeahry","meerkat","none","null","<div style=""font-size:60px; color:black;"">+</div>","","","","","","","","","","",""
"","null","image-keyboard-response","113","2.0.0","235558","pgdyqpeahry","meerkat","none","null","stimuli/organized/STATE/USED/Schinesefoodbox2.jpg","","","","","memory","false","state","true","","",""
"","null","html-keyboard-response","114","2.0.0","236561","pgdyqpeahry","meerkat","none","null","<div style=""font-size:60px; color:black;"">+</div>","","","","","","","","","","",""
"","null","image-keyboard-response","115","2.0.0","239564","pgdyqpeahry","meerkat","none","null","stimuli/organized/STATE/USED/Scoffeemaker2.JPG","","","","","memory","false","state","true","","",""
"","null","html-keyboard-response","116","2.0.0","240567","pgdyqpeahry","meerkat","none","null","<div style=""font-size:60px; color:black;"">+</div>","","","","","","","","","","",""
"","null","image-keyboard-response","117","2.0.0","243570","pgdyqpeahry","meerkat","none","null","stimuli/organized/EXEMPLAR/USED/Ecalculator2.jpg","","","","","memory","false","exemplar","true","","",""
"","null","html-keyboard-response","118","2.0.0","244573","pgdyqpeahry","meerkat","none","null","<div style=""font-size:60px; color:black;"">+</div>","","","","","","","","","","",""
"","null","image-keyboard-response","119","2.0.0","247576","pgdyqpeahry","meerkat","none","null","stimuli/organized/EXEMPLAR/USED/Egrapes1.jpg","","","","","memory","false","exemplar","true","","",""
"","null","html-keyboard-response","120","2.0.0","248579","pgdyqpeahry","meerkat","none","null","<div style=""font-size:60px; color:black;"">+</div>","","","","","","","","","","",""
"","null","image-keyboard-response","121","2.0.0","251582","pgdyqpeahry","meerkat","none","null","stimuli/organized/EXEMPLAR/USED/Egoggles1.jpg","","","","","memory","false","exemplar","true","","",""
"","null","html-keyboard-response","122","2.0.0","252585","pgdyqpeahry","meerkat","none","null","<div style=""font-size:60px; color:black;"">+</div>","","","","","","","","","","",""
"","null","image-keyboard-response","123","2.0.0","255588","pgdyqpeahry","meerkat","none","null","stimuli/organized/Novel pairs (tested)/n08bpaperclip.jpg","","","","","memory","false","novel","true","","",""
"","null","html-keyboard-response","124","2.0.0","256591","pgdyqpeahry","meerkat","none","null","<div style=""font-size:60px; color:black;"">+</div>","","","","","","","","","","",""
"","null","image-keyboard-response","125","2.0.0","259594","pgdyqpeahry","meerkat","none","null","stimuli/organized/STATE/USED/Sdishes2.JPG","","","","","memory","false","state","true","","",""
"","null","html-keyboard-response","126","2.0.0","260596","pgdyqpeahry","meerkat","none","null","<div style=""font-size:60px; color:black;"">+</div>","","","","","","","","","","",""
"","null","image-keyboard-response","127","2.0.0","263599","pgdyqpeahry","meerkat","none","null","stimuli/organized/Novel pairs (tested)/n04bbandaid.jpg","","","","","memory","false","novel","true","","",""
"","null","html-keyboard-response","128","2.0.0","264602","pgdyqpeahry","meerkat","none","null","<div style=""font-size:60px; color:black;"">+</div>","","","","","","","","","","",""
"","null","image-keyboard-response","129","2.0.0","267605","pgdyqpeahry","meerkat","none","null","stimuli/organized/EXEMPLAR/USED/Ecabinet1.jpg","","","","","memory","false","exemplar","true","","",""
"","null","html-keyboard-response","130","2.0.0","268608","pgdyqpeahry","meerkat","none","null","<div style=""font-size:60px; color:black;"">+</div>","","","","","","","","","","",""
"","1090","image-keyboard-response","131","2.0.0","271611","pgdyqpeahry","meerkat","none"," ","stimuli/organized/STATE/USED/Sdrum2.jpg","","","","","memory","true","state","true","","",""
"","null","html-keyboard-response","132","2.0.0","272613","pgdyqpeahry","meerkat","none","null","<div style=""font-size:60px; color:green;"">+</div>","","","","","","","","","","",""
"","null","image-keyboard-response","133","2.0.0","275616","pgdyqpeahry","meerkat","none","null","stimuli/organized/Novel pairs (tested)/n15bfootball.jpg","","","","","memory","false","novel","true","","",""
"","null","html-keyboard-response","134","2.0.0","276618","pgdyqpeahry","meerkat","none","null","<div style=""font-size:60px; color:black;"">+</div>","","","","","","","","","","",""
"","null","image-keyboard-response","135","2.0.0","279621","pgdyqpeahry","meerkat","none","null","stimuli/organized/STATE/USED/Spotpan2.JPG","","","","","memory","false","state","true","","",""
"","null","html-keyboard-response","136","2.0.0","280624","pgdyqpeahry","meerkat","none","null","<div style=""font-size:60px; color:black;"">+</div>","","","","","","","","","","",""
"","null","image-keyboard-response","137","2.0.0","283627","pgdyqpeahry","meerkat","none","null","stimuli/organized/STATE/USED/Sgrinder2.jpg","","","","","memory","false","state","true","","",""
"","null","html-keyboard-response","138","2.0.0","284630","pgdyqpeahry","meerkat","none","null","<div style=""font-size:60px; color:black;"">+</div>","","","","","","","","","","",""
"","null","image-keyboard-response","139","2.0.0","287633","pgdyqpeahry","meerkat","none","null","stimuli/organized/STATE/USED/Scookies2.JPG","","","","","memory","false","state","true","","",""
"","null","html-keyboard-response","140","2.0.0","288636","pgdyqpeahry","meerkat","none","null","<div style=""font-size:60px; color:black;"">+</div>","","","","","","","","","","",""
"","null","image-keyboard-response","141","2.0.0","291639","pgdyqpeahry","meerkat","none","null","stimuli/organized/STATE/USED/Sbottles1.JPG","","","","","memory","false","state","true","","",""
"","null","html-keyboard-response","142","2.0.0","292642","pgdyqpeahry","meerkat","none","null","<div style=""font-size:60px; color:black;"">+</div>","","","","","","","","","","",""
"","null","image-keyboard-response","143","2.0.0","295644","pgdyqpeahry","meerkat","none","null","stimuli/organized/STATE/USED/Sabacus1.jpg","","","","","memory","false","state","true","","",""
"","null","html-keyboard-response","144","2.0.0","296647","pgdyqpeahry","meerkat","none","null","<div style=""font-size:60px; color:black;"">+</div>","","","","","","","","","","",""
"","null","image-keyboard-response","145","2.0.0","299650","pgdyqpeahry","meerkat","none","null","stimuli/organized/Novel pairs (tested)/n03bbagel.jpg","","","","","memory","false","novel","true","","",""
"","null","html-keyboard-response","146","2.0.0","300654","pgdyqpeahry","meerkat","none","null","<div style=""font-size:60px; color:black;"">+</div>","","","","","","","","","","",""
"","null","image-keyboard-response","147","2.0.0","303657","pgdyqpeahry","meerkat","none","null","stimuli/organized/STATE/USED/Sdryer1.jpg","","","","","memory","false","state","true","","",""
"","null","html-keyboard-response","148","2.0.0","304659","pgdyqpeahry","meerkat","none","null","<div style=""font-size:60px; color:black;"">+</div>","","","","","","","","","","",""
"","null","image-keyboard-response","149","2.0.0","307663","pgdyqpeahry","meerkat","none","null","stimuli/organized/Novel pairs (tested)/n01aladybug.jpg","","","","","memory","false","novel","true","","",""
"","null","html-keyboard-response","150","2.0.0","308666","pgdyqpeahry","meerkat","none","null","<div style=""font-size:60px; color:black;"">+</div>","","","","","","","","","","",""
"","null","image-keyboard-response","151","2.0.0","311669","pgdyqpeahry","meerkat","none","null","stimuli/organized/Novel pairs (tested)/n20bshelf.jpg","","","","","memory","false","novel","true","","",""
"","null","html-keyboard-response","152","2.0.0","312672","pgdyqpeahry","meerkat","none","null","<div style=""font-size:60px; color:black;"">+</div>","","","","","","","","","","",""
"","null","image-keyboard-response","153","2.0.0","315675","pgdyqpeahry","meerkat","none","null","stimuli/organized/STATE/USED/Slaptop1.JPG","","","","","memory","false","state","true","","",""
"","null","html-keyboard-response","154","2.0.0","316677","pgdyqpeahry","meerkat","none","null","<div style=""font-size:60px; color:black;"">+</div>","","","","","","","","","","",""
"","null","image-keyboard-response","155","2.0.0","319681","pgdyqpeahry","meerkat","none","null","stimuli/organized/EXEMPLAR/USED/Eglobe2.jpg","","","","","memory","false","exemplar","true","","",""
"","null","html-keyboard-response","156","2.0.0","320683","pgdyqpeahry","meerkat","none","null","<div style=""font-size:60px; color:black;"">+</div>","","","","","","","","","","",""
"","null","image-keyboard-response","157","2.0.0","323686","pgdyqpeahry","meerkat","none","null","stimuli/organized/STATE/USED/Sbabytoy2.JPG","","","","","memory","false","state","true","","",""
"","null","html-keyboard-response","158","2.0.0","324689","pgdyqpeahry","meerkat","none","null","<div style=""font-size:60px; color:black;"">+</div>","","","","","","","","","","",""
"","null","image-keyboard-response","159","2.0.0","327691","pgdyqpeahry","meerkat","none","null","stimuli/organized/EXEMPLAR/USED/Ebicycle1.jpg","","","","","memory","true","exemplar","false","","",""
"","null","html-keyboard-response","160","2.0.0","328694","pgdyqpeahry","meerkat","none","null","<div style=""font-size:60px; color:black;"">+</div>","","","","","","","","","","",""
"","null","image-keyboard-response","161","2.0.0","331700","pgdyqpeahry","meerkat","none","null","stimuli/organized/EXEMPLAR/USED/Econe1.jpg","","","","","memory","false","exemplar","true","","",""
"","null","html-keyboard-response","162","2.0.0","332704","pgdyqpeahry","meerkat","none","null","<div style=""font-size:60px; color:black;"">+</div>","","","","","","","","","","",""
"","1034","image-keyboard-response","163","2.0.0","335708","pgdyqpeahry","meerkat","none"," ","stimuli/organized/Novel pairs (tested)/n20bshelf.jpg","","","","","memory","true","novel","true","","",""
"","null","html-keyboard-response","164","2.0.0","336711","pgdyqpeahry","meerkat","none","null","<div style=""font-size:60px; color:green;"">+</div>","","","","","","","","","","",""
"","null","image-keyboard-response","165","2.0.0","339715","pgdyqpeahry","meerkat","none","null","stimuli/organized/EXEMPLAR/USED/Ecar1.jpg","","","","","memory","false","exemplar","true","","",""
"","5212","html-button-response","166","2.0.0","344930","pgdyqpeahry","meerkat","none","0","<p>You have completed the study phase.</p><p>Take a short break. Press the button below when you are ready to continue.</p>","","","","","","","","","","",""
"","5849","html-keyboard-response","167","2.0.0","350779","pgdyqpeahry","meerkat","none"," ","<p>You will now be shown pairs of images.</p><p>Select the image you remember seeing during the study phase.</p><p>Focus on accuracy, not speed.</p><p>Press any key to begin.</p>","","","","","","","","","","",""
"","1933","html-button-response","168","2.0.0","352714","pgdyqpeahry","meerkat","none","1","Which of these items did you see earlier?","","","","","test","","exemplar","true","stimuli/organized/EXEMPLAR/USED/Econe1.jpg","stimuli/organized/EXEMPLAR/USED/Econe2.jpg","1"
"","1398","html-button-response","169","2.0.0","354113","pgdyqpeahry","meerkat","none","1","Which of these items did you see earlier?","","","","","test","","state","true","stimuli/organized/STATE/USED/Spotpan2.JPG","stimuli/organized/STATE/USED/Spotpan1.JPG","1"
"","2730","html-button-response","170","2.0.0","356845","pgdyqpeahry","meerkat","none","0","Which of these items did you see earlier?","","","","","test","","state","true","stimuli/organized/STATE/USED/Sbrushes2.jpg","stimuli/organized/STATE/USED/Sbrushes1.jpg","0"
"","1933","html-button-response","171","2.0.0","358779","pgdyqpeahry","meerkat","none","1","Which of these items did you see earlier?","","","","","test","","state","true","stimuli/organized/STATE/USED/Sgiftbox2.jpg","stimuli/organized/STATE/USED/Sgiftbox1.jpg","1"
"","2030","html-button-response","172","2.0.0","360811","pgdyqpeahry","meerkat","none","1","Which of these items did you see earlier?","","","","","test","","exemplar","true","stimuli/organized/EXEMPLAR/USED/Echisel1.jpg","stimuli/organized/EXEMPLAR/USED/Echisel2.jpg","1"
"","4283","html-button-response","173","2.0.0","365096","pgdyqpeahry","meerkat","none","0","Which of these items did you see earlier?","","","","","test","","state","false","stimuli/organized/STATE/USED/Sabacus1.jpg","stimuli/organized/STATE/USED/Sabacus2.jpg","1"
"","2081","html-button-response","174","2.0.0","367179","pgdyqpeahry","meerkat","none","0","Which of these items did you see earlier?","","","","","test","","state","true","stimuli/organized/STATE/USED/Sscissors2.JPG","stimuli/organized/STATE/USED/Sscissors1.JPG","0"
"","3698","html-button-response","175","2.0.0","370878","pgdyqpeahry","meerkat","none","0","Which of these items did you see earlier?","","","","","test","","state","true","stimuli/organized/STATE/USED/Sbriefcase1.jpg","stimuli/organized/STATE/USED/Sbriefcase2.jpg","0"
"","1515","html-button-response","176","2.0.0","372395","pgdyqpeahry","meerkat","none","1","Which of these items did you see earlier?","","","","","test","","state","false","stimuli/organized/STATE/USED/Scrayons1.jpg","stimuli/organized/STATE/USED/Scrayons2.jpg","0"
"","1565","html-button-response","177","2.0.0","373962","pgdyqpeahry","meerkat","none","0","Which of these items did you see earlier?","","","","","test","","exemplar","true","stimuli/organized/EXEMPLAR/USED/Ecar1.jpg","stimuli/organized/EXEMPLAR/USED/Ecar2.jpg","0"
"","1914","html-button-response","178","2.0.0","375878","pgdyqpeahry","meerkat","none","1","Which of these items did you see earlier?","","","","","test","","state","true","stimuli/organized/STATE/USED/Sbureau2.JPG","stimuli/organized/STATE/USED/Sbureau1.JPG","1"
"","2331","html-button-response","179","2.0.0","378211","pgdyqpeahry","meerkat","none","0","Which of these items did you see earlier?","","","","","test","","novel","true","stimuli/organized/Novel pairs (tested)/n05abarrel.jpg","stimuli/organized/Novel pairs (tested)/n05bcactus.jpg","0"
"","3215","html-button-response","180","2.0.0","381428","pgdyqpeahry","meerkat","none","1","Which of these items did you see earlier?","","","","","test","","state","false","stimuli/organized/STATE/USED/Sgrinder2.jpg","stimuli/organized/STATE/USED/Sgrinder1.jpg","0"
"","1032","html-button-response","181","2.0.0","382463","pgdyqpeahry","meerkat","none","0","Which of these items did you see earlier?","","","","","test","","novel","true","stimuli/organized/Novel pairs (tested)/n15bfootball.jpg","stimuli/organized/Novel pairs (tested)/n15aspiderweb.jpg","0"
"","1582","html-button-response","182","2.0.0","384046","pgdyqpeahry","meerkat","none","1","Which of these items did you see earlier?","","","","","test","","state","true","stimuli/organized/STATE/USED/Sfiretrucktoy2.jpg","stimuli/organized/STATE/USED/Sfiretrucktoy1.jpg","1"
"","1300","html-button-response","183","2.0.0","385348","pgdyqpeahry","meerkat","none","0","Which of these items did you see earlier?","","","","","test","","exemplar","true","stimuli/organized/EXEMPLAR/USED/Ebicycle1.jpg","stimuli/organized/EXEMPLAR/USED/Ebicycle2.jpg","0"
"","1079","html-button-response","184","2.0.0","386429","pgdyqpeahry","meerkat","none","1","Which of these items did you see earlier?","","","","","test","","state","true","stimuli/organized/STATE/USED/Sdryer1.jpg","stimuli/organized/STATE/USED/Sdryer2.jpg","1"
"","1232","html-button-response","185","2.0.0","387663","pgdyqpeahry","meerkat","none","0","Which of these items did you see earlier?","","","","","test","","novel","true","stimuli/organized/Novel pairs (tested)/n12bwatch.jpg","stimuli/organized/Novel pairs (tested)/n12atelescope.jpg","0"
"","2380","html-button-response","186","2.0.0","390044","pgdyqpeahry","meerkat","none","1","Which of these items did you see earlier?","","","","","test","","state","true","stimuli/organized/STATE/USED/Scoffeemaker2.JPG","stimuli/organized/STATE/USED/Scoffeemaker1.JPG","1"
"","1301","html-button-response","187","2.0.0","391346","pgdyqpeahry","meerkat","none","1","Which of these items did you see earlier?","","","","","test","","state","true","stimuli/organized/STATE/USED/Schinesefoodbox2.jpg","stimuli/organized/STATE/USED/Schinesefoodbox1.jpg","1"
"","1582","html-button-response","188","2.0.0","392929","pgdyqpeahry","meerkat","none","1","Which of these items did you see earlier?","","","","","test","","state","true","stimuli/organized/STATE/USED/Sbox1.jpg","stimuli/organized/STATE/USED/Sbox2.jpg","1"
"","1315","html-button-response","189","2.0.0","394246","pgdyqpeahry","meerkat","none","0","Which of these items did you see earlier?","","","","","test","","state","true","stimuli/organized/STATE/USED/Spie2.JPG","stimuli/organized/STATE/USED/Spie1.JPG","0"
"","2046","html-button-response","190","2.0.0","396294","pgdyqpeahry","meerkat","none","1","Which of these items did you see earlier?","","","","","test","","exemplar","true","stimuli/organized/EXEMPLAR/USED/Egrapes1.jpg","stimuli/organized/EXEMPLAR/USED/Egrapes2.jpg","1"
"","4701","html-button-response","191","2.0.0","400996","pgdyqpeahry","meerkat","none","1","Which of these items did you see earlier?","","","","","test","","state","true","stimuli/organized/STATE/USED/Sdie2.jpg","stimuli/organized/STATE/USED/Sdie1.jpg","1"
"","898","html-button-response","192","2.0.0","401896","pgdyqpeahry","meerkat","none","1","Which of these items did you see earlier?","","","","","test","","state","true","stimuli/organized/STATE/USED/Sjuiceglass2.JPG","stimuli/organized/STATE/USED/Sjuiceglass1.JPG","1"
"","1098","html-button-response","193","2.0.0","402996","pgdyqpeahry","meerkat","none","1","Which of these items did you see earlier?","","","","","test","","novel","true","stimuli/organized/Novel pairs (tested)/n20bshelf.jpg","stimuli/organized/Novel pairs (tested)/n20acarseat.jpg","1"
"","2132","html-button-response","194","2.0.0","405129","pgdyqpeahry","meerkat","none","0","Which of these items did you see earlier?","","","","","test","","novel","true","stimuli/organized/Novel pairs (tested)/n16bhammer.jpg","stimuli/organized/Novel pairs (tested)/n16abananas.jpg","0"
"","2314","html-button-response","195","2.0.0","407446","pgdyqpeahry","meerkat","none","0","Which of these items did you see earlier?","","","","","test","","exemplar","true","stimuli/organized/EXEMPLAR/USED/Ecamera1.jpg","stimuli/organized/EXEMPLAR/USED/Ecamera2.jpg","0"
"","1166","html-button-response","196","2.0.0","408613","pgdyqpeahry","meerkat","none","0","Which of these items did you see earlier?","","","","","test","","state","true","stimuli/organized/STATE/USED/Slaptop1.JPG","stimuli/organized/STATE/USED/Slaptop2.JPG","0"
"","1347","html-button-response","197","2.0.0","409961","pgdyqpeahry","meerkat","none","0","Which of these items did you see earlier?","","","","","test","","exemplar","true","stimuli/organized/EXEMPLAR/USED/Ebell1.jpg","stimuli/organized/EXEMPLAR/USED/Ebell2.jpg","0"
"","1751","html-button-response","198","2.0.0","411713","pgdyqpeahry","meerkat","none","0","Which of these items did you see earlier?","","","","","test","","state","true","stimuli/organized/STATE/USED/Sbabytoy2.JPG","stimuli/organized/STATE/USED/Sbabytoy1.JPG","0"
"","1814","html-button-response","199","2.0.0","413529","pgdyqpeahry","meerkat","none","0","Which of these items did you see earlier?","","","","","test","","exemplar","false","stimuli/organized/EXEMPLAR/USED/Efan2.jpg","stimuli/organized/EXEMPLAR/USED/Efan1.jpg","1"
"","1349","html-button-response","200","2.0.0","414879","pgdyqpeahry","meerkat","none","0","Which of these items did you see earlier?","","","","","test","","state","true","stimuli/organized/STATE/USED/Sphone1.JPG","stimuli/organized/STATE/USED/Sphone2.JPG","0"
"","2132","html-button-response","201","2.0.0","417013","pgdyqpeahry","meerkat","none","1","Which of these items did you see earlier?","","","","","test","","exemplar","true","stimuli/organized/EXEMPLAR/USED/Ebasket1.jpg","stimuli/organized/EXEMPLAR/USED/Ebasket2.jpg","1"
"","1664","html-button-response","202","2.0.0","418679","pgdyqpeahry","meerkat","none","0","Which of these items did you see earlier?","","","","","test","","novel","true","stimuli/organized/Novel pairs (tested)/n08bpaperclip.jpg","stimuli/organized/Novel pairs (tested)/n08aoven.jpg","0"
"","2449","html-button-response","203","2.0.0","421130","pgdyqpeahry","meerkat","none","1","Which of these items did you see earlier?","","","","","test","","state","true","stimuli/organized/STATE/USED/Shairbrush2.jpg","stimuli/organized/STATE/USED/Shairbrush1.jpg","1"
"","1048","html-button-response","204","2.0.0","422180","pgdyqpeahry","meerkat","none","1","Which of these items did you see earlier?","","","","","test","","novel","true","stimuli/organized/Novel pairs (tested)/n03bbagel.jpg","stimuli/organized/Novel pairs (tested)/n03acamel.jpg","1"
"","1313","html-button-response","205","2.0.0","423495","pgdyqpeahry","meerkat","none","1","Which of these items did you see earlier?","","","","","test","","state","true","stimuli/organized/STATE/USED/Sgiftbag2.jpg","stimuli/organized/STATE/USED/Sgiftbag1.jpg","1"
"","1882","html-button-response","206","2.0.0","425379","pgdyqpeahry","meerkat","none","0","Which of these items did you see earlier?","","","","","test","","state","false","stimuli/organized/STATE/USED/Sbelt1.jpg","stimuli/organized/STATE/USED/Sbelt2.jpg","1"
"","1385","html-button-response","207","2.0.0","426765","pgdyqpeahry","meerkat","none","1","Which of these items did you see earlier?","","","","","test","","state","true","stimuli/organized/STATE/USED/Sdresser1.jpg","stimuli/organized/STATE/USED/Sdresser2.jpg","1"
"","1363","html-button-response","208","2.0.0","428130","pgdyqpeahry","meerkat","none","1","Which of these items did you see earlier?","","","","","test","","novel","true","stimuli/organized/Novel pairs (tested)/n10bturkey.jpg","stimuli/organized/Novel pairs (tested)/n10awindmill.jpg","1"
"","1898","html-button-response","209","2.0.0","430030","pgdyqpeahry","meerkat","none","0","Which of these items did you see earlier?","","","","","test","","state","true","stimuli/organized/STATE/USED/Sbooks1.JPG","stimuli/organized/STATE/USED/Sbooks2.JPG","0"
"","1531","html-button-response","210","2.0.0","431562","pgdyqpeahry","meerkat","none","0","Which of these items did you see earlier?","","","","","test","","exemplar","false","stimuli/organized/EXEMPLAR/USED/Egame1.jpg","stimuli/organized/EXEMPLAR/USED/Egame2.jpg","1"
"","2786","html-button-response","211","2.0.0","434350","pgdyqpeahry","meerkat","none","1","Which of these items did you see earlier?","","","","","test","","exemplar","false","stimuli/organized/EXEMPLAR/USED/Ecalculator2.jpg","stimuli/organized/EXEMPLAR/USED/Ecalculator1.jpg","0"
"","1462","html-button-response","212","2.0.0","435813","pgdyqpeahry","meerkat","none","0","Which of these items did you see earlier?","","","","","test","","exemplar","true","stimuli/organized/EXEMPLAR/USED/Ecabinet1.jpg","stimuli/organized/EXEMPLAR/USED/Ecabinet2.jpg","0"
"","1031","html-button-response","213","2.0.0","436846","pgdyqpeahry","meerkat","none","0","Which of these items did you see earlier?","","","","","test","","novel","true","stimuli/organized/Novel pairs (tested)/n07apotato.jpg","stimuli/organized/Novel pairs (tested)/n07bswimmingpool.jpg","0"
"","5765","html-button-response","214","2.0.0","442613","pgdyqpeahry","meerkat","none","0","Which of these items did you see earlier?","","","","","test","","state","false","stimuli/organized/STATE/USED/Seggs2.jpg","stimuli/organized/STATE/USED/Seggs1.jpg","1"
"","1098","html-button-response","215","2.0.0","443713","pgdyqpeahry","meerkat","none","1","Which of these items did you see earlier?","","","","","test","","novel","true","stimuli/organized/Novel pairs (tested)/n18apretzel.jpg","stimuli/organized/Novel pairs (tested)/n18bsnail.jpg","1"
"","2582","html-button-response","216","2.0.0","446297","pgdyqpeahry","meerkat","none","1","Which of these items did you see earlier?","","","","","test","","state","true","stimuli/organized/STATE/USED/Sflask1.jpg","stimuli/organized/STATE/USED/Sflask2.jpg","1"
"","1947","html-button-response","217","2.0.0","448245","pgdyqpeahry","meerkat","none","1","Which of these items did you see earlier?","","","","","test","","novel","true","stimuli/organized/Novel pairs (tested)/n02aaxe.jpg","stimuli/organized/Novel pairs (tested)/n02bsafetypin.jpg","1"
"","1299","html-button-response","218","2.0.0","449545","pgdyqpeahry","meerkat","none","1","Which of these items did you see earlier?","","","","","test","","exemplar","true","stimuli/organized/EXEMPLAR/USED/Ebracelet1.jpg","stimuli/organized/EXEMPLAR/USED/Ebracelet2.jpg","1"
"","1683","html-button-response","219","2.0.0","451229","pgdyqpeahry","meerkat","none","0","Which of these items did you see earlier?","","","","","test","","state","true","stimuli/organized/STATE/USED/Scookies2.JPG","stimuli/organized/STATE/USED/Scookies1.JPG","0"
"","1683","html-button-response","220","2.0.0","452913","pgdyqpeahry","meerkat","none","0","Which of these items did you see earlier?","","","","","test","","state","true","stimuli/organized/STATE/USED/Sdishes2.JPG","stimuli/organized/STATE/USED/Sdishes1.JPG","0"
"","998","html-button-response","221","2.0.0","453913","pgdyqpeahry","meerkat","none","0","Which of these items did you see earlier?","","","","","test","","novel","true","stimuli/organized/Novel pairs (tested)/n06blipstick.jpg","stimuli/organized/Novel pairs (tested)/n06acane.jpg","0"
"","1649","html-button-response","222","2.0.0","455564","pgdyqpeahry","meerkat","none","0","Which of these items did you see earlier?","","","","","test","","exemplar","false","stimuli/organized/EXEMPLAR/USED/Eglobe2.jpg","stimuli/organized/EXEMPLAR/USED/Eglobe1.jpg","1"
"","1813","html-button-response","223","2.0.0","457379","pgdyqpeahry","meerkat","none","1","Which of these items did you see earlier?","","","","","test","","novel","true","stimuli/organized/Novel pairs (tested)/n17avendingmachine.jpg","stimuli/organized/Novel pairs (tested)/n17bweddingdress.jpg","1"
"","1183","html-button-response","224","2.0.0","458564","pgdyqpeahry","meerkat","none","1","Which of these items did you see earlier?","","","","","test","","novel","true","stimuli/organized/Novel pairs (tested)/n13bdustpan.jpg","stimuli/organized/Novel pairs (tested)/n13ablueberries.jpg","1"
"","1031","html-button-response","225","2.0.0","459597","pgdyqpeahry","meerkat","none","0","Which of these items did you see earlier?","","","","","test","","novel","true","stimuli/organized/Novel pairs (tested)/n14bgolfball.jpg","stimuli/organized/Novel pairs (tested)/n14acigarette.jpg","0"
"","882","html-button-response","226","2.0.0","460481","pgdyqpeahry","meerkat","none","0","Which of these items did you see earlier?","","","","","test","","exemplar","true","stimuli/organized/EXEMPLAR/USED/Ebread2.jpg","stimuli/organized/EXEMPLAR/USED/Ebread1.jpg","0"
"","2931","html-button-response","227","2.0.0","463414","pgdyqpeahry","meerkat","none","0","Which of these items did you see earlier?","","","","","test","","state","false","stimuli/organized/STATE/USED/Sscanner1.JPG","stimuli/organized/STATE/USED/Sscanner2.JPG","1"
"","947","html-button-response","228","2.0.0","464363","pgdyqpeahry","meerkat","none","0","Which of these items did you see earlier?","","","","","test","","novel","true","stimuli/organized/Novel pairs (tested)/n11abatteries.jpg","stimuli/organized/Novel pairs (tested)/n11bsock.jpg","0"
"","2350","html-button-response","229","2.0.0","466716","pgdyqpeahry","meerkat","none","1","Which of these items did you see earlier?","","","","","test","","state","true","stimuli/organized/STATE/USED/Sbreadbox1.JPG","stimuli/organized/STATE/USED/Sbreadbox2.JPG","1"
"","1712","html-button-response","230","2.0.0","468430","pgdyqpeahry","meerkat","none","0","Which of these items did you see earlier?","","","","","test","","novel","true","stimuli/organized/Novel pairs (tested)/n19bhairbrush.jpg","stimuli/organized/Novel pairs (tested)/n19apickle.jpg","0"
"","3963","html-button-response","231","2.0.0","472394","pgdyqpeahry","meerkat","none","1","Which of these items did you see earlier?","","","","","test","","exemplar","true","stimuli/organized/EXEMPLAR/USED/Efeather2.jpg","stimuli/organized/EXEMPLAR/USED/Efeather1.jpg","1"
"","1268","html-button-response","232","2.0.0","473663","pgdyqpeahry","meerkat","none","1","Which of these items did you see earlier?","","","","","test","","state","true","stimuli/organized/STATE/USED/Sapplesgreenbasket1.jpg","stimuli/organized/STATE/USED/Sapplesgreenbasket2.jpg","1"
"","1665","html-button-response","233","2.0.0","475330","pgdyqpeahry","meerkat","none","0","Which of these items did you see earlier?","","","","","test","","state","false","stimuli/organized/STATE/USED/Scontainer2.JPG","stimuli/organized/STATE/USED/Scontainer1.JPG","1"
"","2248","html-button-response","234","2.0.0","477580","pgdyqpeahry","meerkat","none","0","Which of these items did you see earlier?","","","","","test","","exemplar","false","stimuli/organized/EXEMPLAR/USED/Egoggles1.jpg","stimuli/organized/EXEMPLAR/USED/Egoggles2.jpg","1"
"","1248","html-button-response","235","2.0.0","478830","pgdyqpeahry","meerkat","none","0","Which of these items did you see earlier?","","","","","test","","novel","true","stimuli/organized/Novel pairs (tested)/n09apenguin.jpg","stimuli/organized/Novel pairs (tested)/n09bsaddle.jpg","0"
"","1348","html-button-response","236","2.0.0","480180","pgdyqpeahry","meerkat","none","1","Which of these items did you see earlier?","","","","","test","","state","true","stimuli/organized/STATE/USED/Sdonut1.jpg","stimuli/organized/STATE/USED/Sdonut2.jpg","1"
"","1483","html-button-response","237","2.0.0","481664","pgdyqpeahry","meerkat","none","1","Which of these items did you see earlier?","","","","","test","","novel","true","stimuli/organized/Novel pairs (tested)/n01aladybug.jpg","stimuli/organized/Novel pairs (tested)/n01bcoin.jpg","1"
"","1848","html-button-response","238","2.0.0","483514","pgdyqpeahry","meerkat","none","0","Which of these items did you see earlier?","","","","","test","","state","false","stimuli/organized/STATE/USED/Sbottles1.JPG","stimuli/organized/STATE/USED/Sbottles2.JPG","1"
"","999","html-button-response","239","2.0.0","484514","pgdyqpeahry","meerkat","none","0","Which of these items did you see earlier?","","","","","test","","exemplar","true","stimuli/organized/EXEMPLAR/USED/Echocolatebar1.jpg","stimuli/organized/EXEMPLAR/USED/Echocolatebar2.jpg","0"
"","1748","html-button-response","240","2.0.0","486264","pgdyqpeahry","meerkat","none","0","Which of these items did you see earlier?","","","","","test","","exemplar","false","stimuli/organized/EXEMPLAR/USED/Edispenser2.jpg","stimuli/organized/EXEMPLAR/USED/Edispenser1.jpg","1"
"","1115","html-button-response","241","2.0.0","487381","pgdyqpeahry","meerkat","none","1","Which of these items did you see earlier?","","","","","test","","state","true","stimuli/organized/STATE/USED/Sdrum2.jpg","stimuli/organized/STATE/USED/Sdrum1.jpg","1"
"","1282","html-button-response","242","2.0.0","488665","pgdyqpeahry","meerkat","none","1","Which of these items did you see earlier?","","","","","test","","exemplar","true","stimuli/organized/EXEMPLAR/USED/Eframe1.jpg","stimuli/organized/EXEMPLAR/USED/Eframe2.jpg","1"
"","1747","html-button-response","243","2.0.0","490414","pgdyqpeahry","meerkat","none","1","Which of these items did you see earlier?","","","","","test","","novel","true","stimuli/organized/Novel pairs (tested)/n04bbandaid.jpg","stimuli/organized/Novel pairs (tested)/n04ayarn.jpg","1"
"","6383","survey-html-form","244","2.0.0","496799","pgdyqpeahry","meerkat","none","{""age"":""21"",""gender"":""female"",""memory_experiment_experience"":""yes""}","","","","","","","","","","","",""
"","18631","survey-text","245","2.0.0","515432","pgdyqpeahry","meerkat","none","{""task_guess"":""accuracy of memorization from photos of similar/different image objects?""}","","","","","","","","","","","",""
"","2065","survey-text","246","2.0.0","517499","pgdyqpeahry","meerkat","none","{""technical_issues_question"":""none""}","","","","","","","","","","","",""
