"success","rt","trial_type","trial_index","plugin_version","time_elapsed","random_id","participant","technical_issues","response","stimulus","timeout","failed_images","failed_audio","failed_video","trial_phase","is_repeat","test_type","correct","old_image","new_image","correct_position"
"true","1176","fullscreen","0","null","2180","pgvzc8kpy7d","turtle","no","","","","","","","","","","","","",""
"","3276","survey-text","1","2.0.0","5460","pgvzc8kpy7d","turtle","no","{""participant_id"":""turtle""}","","","","","","","","","","","",""
"","10971","html-keyboard-response","2","2.0.0","16433","pgvzc8kpy7d","turtle","no"," ","
      <p>In this experiment, a series of objects will be displayed.</p>
      <p>Try to memorize as much as possible about the objects.</p>
      <p>If the image is a <strong> repeat</strong>, press the SPACEBAR.</p>
      <p>Press any key to begin.</p>
    ","","","","","","","","","","",""
"true","","preload","3","2.0.0","16811","pgvzc8kpy7d","turtle","no","","","false","[]","[]","[]","","","","","","",""
"","null","html-keyboard-response","4","2.0.0","17812","pgvzc8kpy7d","turtle","no","null","<div style=""font-size:60px;"">+</div>","","","","","","","","","","",""
"","null","image-keyboard-response","5","2.0.0","20815","pgvzc8kpy7d","turtle","no","null","stimuli/organized/STATE/USED/Sbottles2.JPG","","","","","memory","false","state","true","","",""
"","null","html-keyboard-response","6","2.0.0","21818","pgvzc8kpy7d","turtle","no","null","<div style=""font-size:60px; color:black;"">+</div>","","","","","","","","","","",""
"","null","image-keyboard-response","7","2.0.0","24821","pgvzc8kpy7d","turtle","no","null","stimuli/organized/STATE/USED/Sbreadbox1.JPG","","","","","memory","false","state","true","","",""
"","null","html-keyboard-response","8","2.0.0","25823","pgvzc8kpy7d","turtle","no","null","<div style=""font-size:60px; color:black;"">+</div>","","","","","","","","","","",""
"","null","image-keyboard-response","9","2.0.0","28827","pgvzc8kpy7d","turtle","no","null","stimuli/organized/Novel pairs (tested)/n19apickle.jpg","","","","","memory","false","novel","true","","",""
"","null","html-keyboard-response","10","2.0.0","29829","pgvzc8kpy7d","turtle","no","null","<div style=""font-size:60px; color:black;"">+</div>","","","","","","","","","","",""
"","null","image-keyboard-response","11","2.0.0","32832","pgvzc8kpy7d","turtle","no","null","stimuli/organized/STATE/USED/Shairbrush1.jpg","","","","","memory","false","state","true","","",""
"","null","html-keyboard-response","12","2.0.0","33834","pgvzc8kpy7d","turtle","no","null","<div style=""font-size:60px; color:black;"">+</div>","","","","","","","","","","",""
"","null","image-keyboard-response","13","2.0.0","36836","pgvzc8kpy7d","turtle","no","null","stimuli/organized/EXEMPLAR/USED/Ebasket1.jpg","","","","","memory","false","exemplar","true","","",""
"","null","html-keyboard-response","14","2.0.0","37838","pgvzc8kpy7d","turtle","no","null","<div style=""font-size:60px; color:black;"">+</div>","","","","","","","","","","",""
"","null","image-keyboard-response","15","2.0.0","40841","pgvzc8kpy7d","turtle","no","null","stimuli/organized/Novel pairs (tested)/n03bbagel.jpg","","","","","memory","false","novel","true","","",""
"","null","html-keyboard-response","16","2.0.0","41844","pgvzc8kpy7d","turtle","no","null","<div style=""font-size:60px; color:black;"">+</div>","","","","","","","","","","",""
"","null","image-keyboard-response","17","2.0.0","44847","pgvzc8kpy7d","turtle","no","null","stimuli/organized/EXEMPLAR/USED/Ecamera2.jpg","","","","","memory","false","exemplar","true","","",""
"","null","html-keyboard-response","18","2.0.0","45850","pgvzc8kpy7d","turtle","no","null","<div style=""font-size:60px; color:black;"">+</div>","","","","","","","","","","",""
"","null","image-keyboard-response","19","2.0.0","48852","pgvzc8kpy7d","turtle","no","null","stimuli/organized/STATE/USED/Sdryer1.jpg","","","","","memory","false","state","true","","",""
"","null","html-keyboard-response","20","2.0.0","49854","pgvzc8kpy7d","turtle","no","null","<div style=""font-size:60px; color:black;"">+</div>","","","","","","","","","","",""
"","null","image-keyboard-response","21","2.0.0","52857","pgvzc8kpy7d","turtle","no","null","stimuli/organized/STATE/USED/Sfiretrucktoy1.jpg","","","","","memory","false","state","true","","",""
"","null","html-keyboard-response","22","2.0.0","53860","pgvzc8kpy7d","turtle","no","null","<div style=""font-size:60px; color:black;"">+</div>","","","","","","","","","","",""
"","null","image-keyboard-response","23","2.0.0","56863","pgvzc8kpy7d","turtle","no","null","stimuli/organized/EXEMPLAR/USED/Ebread1.jpg","","","","","memory","false","exemplar","true","","",""
"","null","html-keyboard-response","24","2.0.0","57865","pgvzc8kpy7d","turtle","no","null","<div style=""font-size:60px; color:black;"">+</div>","","","","","","","","","","",""
"","null","image-keyboard-response","25","2.0.0","60868","pgvzc8kpy7d","turtle","no","null","stimuli/organized/STATE/USED/Sdonut2.jpg","","","","","memory","false","state","true","","",""
"","null","html-keyboard-response","26","2.0.0","61870","pgvzc8kpy7d","turtle","no","null","<div style=""font-size:60px; color:black;"">+</div>","","","","","","","","","","",""
"","null","image-keyboard-response","27","2.0.0","64872","pgvzc8kpy7d","turtle","no","null","stimuli/organized/STATE/USED/Sphone2.JPG","","","","","memory","false","state","true","","",""
"","null","html-keyboard-response","28","2.0.0","65875","pgvzc8kpy7d","turtle","no","null","<div style=""font-size:60px; color:black;"">+</div>","","","","","","","","","","",""
"","null","image-keyboard-response","29","2.0.0","68877","pgvzc8kpy7d","turtle","no","null","stimuli/organized/EXEMPLAR/USED/Ecalculator1.jpg","","","","","memory","false","exemplar","true","","",""
"","null","html-keyboard-response","30","2.0.0","69879","pgvzc8kpy7d","turtle","no","null","<div style=""font-size:60px; color:black;"">+</div>","","","","","","","","","","",""
"","null","image-keyboard-response","31","2.0.0","72882","pgvzc8kpy7d","turtle","no","null","stimuli/organized/Novel pairs (tested)/n18apretzel.jpg","","","","","memory","false","novel","true","","",""
"","null","html-keyboard-response","32","2.0.0","73884","pgvzc8kpy7d","turtle","no","null","<div style=""font-size:60px; color:black;"">+</div>","","","","","","","","","","",""
"","null","image-keyboard-response","33","2.0.0","76886","pgvzc8kpy7d","turtle","no","null","stimuli/organized/STATE/USED/Sbelt2.jpg","","","","","memory","false","state","true","","",""
"","null","html-keyboard-response","34","2.0.0","77888","pgvzc8kpy7d","turtle","no","null","<div style=""font-size:60px; color:black;"">+</div>","","","","","","","","","","",""
"","null","image-keyboard-response","35","2.0.0","80891","pgvzc8kpy7d","turtle","no","null","stimuli/organized/Novel pairs (tested)/n01bcoin.jpg","","","","","memory","false","novel","true","","",""
"","null","html-keyboard-response","36","2.0.0","81894","pgvzc8kpy7d","turtle","no","null","<div style=""font-size:60px; color:black;"">+</div>","","","","","","","","","","",""
"","null","image-keyboard-response","37","2.0.0","84897","pgvzc8kpy7d","turtle","no","null","stimuli/organized/STATE/USED/Sapplesgreenbasket1.jpg","","","","","memory","false","state","true","","",""
"","null","html-keyboard-response","38","2.0.0","85899","pgvzc8kpy7d","turtle","no","null","<div style=""font-size:60px; color:black;"">+</div>","","","","","","","","","","",""
"","null","image-keyboard-response","39","2.0.0","88902","pgvzc8kpy7d","turtle","no","null","stimuli/organized/EXEMPLAR/USED/Echisel2.jpg","","","","","memory","false","exemplar","true","","",""
"","null","html-keyboard-response","40","2.0.0","89905","pgvzc8kpy7d","turtle","no","null","<div style=""font-size:60px; color:black;"">+</div>","","","","","","","","","","",""
"","null","image-keyboard-response","41","2.0.0","92907","pgvzc8kpy7d","turtle","no","null","stimuli/organized/STATE/USED/Sflask2.jpg","","","","","memory","false","state","true","","",""
"","null","html-keyboard-response","42","2.0.0","93909","pgvzc8kpy7d","turtle","no","null","<div style=""font-size:60px; color:black;"">+</div>","","","","","","","","","","",""
"","null","image-keyboard-response","43","2.0.0","96913","pgvzc8kpy7d","turtle","no","null","stimuli/organized/STATE/USED/Slaptop1.JPG","","","","","memory","false","state","true","","",""
"","null","html-keyboard-response","44","2.0.0","97915","pgvzc8kpy7d","turtle","no","null","<div style=""font-size:60px; color:black;"">+</div>","","","","","","","","","","",""
"","null","image-keyboard-response","45","2.0.0","100918","pgvzc8kpy7d","turtle","no","null","stimuli/organized/Novel pairs (tested)/n15bfootball.jpg","","","","","memory","false","novel","true","","",""
"","null","html-keyboard-response","46","2.0.0","101921","pgvzc8kpy7d","turtle","no","null","<div style=""font-size:60px; color:black;"">+</div>","","","","","","","","","","",""
"","null","image-keyboard-response","47","2.0.0","104924","pgvzc8kpy7d","turtle","no","null","stimuli/organized/STATE/USED/Sbriefcase1.jpg","","","","","memory","false","state","true","","",""
"","null","html-keyboard-response","48","2.0.0","105927","pgvzc8kpy7d","turtle","no","null","<div style=""font-size:60px; color:black;"">+</div>","","","","","","","","","","",""
"","null","image-keyboard-response","49","2.0.0","108929","pgvzc8kpy7d","turtle","no","null","stimuli/organized/EXEMPLAR/USED/Ecabinet2.jpg","","","","","memory","false","exemplar","true","","",""
"","null","html-keyboard-response","50","2.0.0","109932","pgvzc8kpy7d","turtle","no","null","<div style=""font-size:60px; color:black;"">+</div>","","","","","","","","","","",""
"","null","image-keyboard-response","51","2.0.0","112935","pgvzc8kpy7d","turtle","no","null","stimuli/organized/STATE/USED/Sbureau1.JPG","","","","","memory","false","state","true","","",""
"","null","html-keyboard-response","52","2.0.0","113937","pgvzc8kpy7d","turtle","no","null","<div style=""font-size:60px; color:black;"">+</div>","","","","","","","","","","",""
"","null","image-keyboard-response","53","2.0.0","116940","pgvzc8kpy7d","turtle","no","null","stimuli/organized/STATE/USED/Sbrushes1.jpg","","","","","memory","false","state","true","","",""
"","null","html-keyboard-response","54","2.0.0","117943","pgvzc8kpy7d","turtle","no","null","<div style=""font-size:60px; color:black;"">+</div>","","","","","","","","","","",""
"","null","image-keyboard-response","55","2.0.0","120945","pgvzc8kpy7d","turtle","no","null","stimuli/organized/Novel pairs (tested)/n10awindmill.jpg","","","","","memory","false","novel","true","","",""
"","null","html-keyboard-response","56","2.0.0","121947","pgvzc8kpy7d","turtle","no","null","<div style=""font-size:60px; color:black;"">+</div>","","","","","","","","","","",""
"","null","image-keyboard-response","57","2.0.0","124951","pgvzc8kpy7d","turtle","no","null","stimuli/organized/STATE/USED/Scrayons1.jpg","","","","","memory","false","state","true","","",""
"","null","html-keyboard-response","58","2.0.0","125954","pgvzc8kpy7d","turtle","no","null","<div style=""font-size:60px; color:black;"">+</div>","","","","","","","","","","",""
"","null","image-keyboard-response","59","2.0.0","128957","pgvzc8kpy7d","turtle","no","null","stimuli/organized/Novel pairs (tested)/n09apenguin.jpg","","","","","memory","false","novel","true","","",""
"","null","html-keyboard-response","60","2.0.0","129959","pgvzc8kpy7d","turtle","no","null","<div style=""font-size:60px; color:black;"">+</div>","","","","","","","","","","",""
"","null","image-keyboard-response","61","2.0.0","132962","pgvzc8kpy7d","turtle","no","null","stimuli/organized/Novel pairs (tested)/n17bweddingdress.jpg","","","","","memory","false","novel","true","","",""
"","null","html-keyboard-response","62","2.0.0","133964","pgvzc8kpy7d","turtle","no","null","<div style=""font-size:60px; color:black;"">+</div>","","","","","","","","","","",""
"","null","image-keyboard-response","63","2.0.0","136966","pgvzc8kpy7d","turtle","no","null","stimuli/organized/STATE/USED/Spotpan1.JPG","","","","","memory","false","state","true","","",""
"","null","html-keyboard-response","64","2.0.0","137969","pgvzc8kpy7d","turtle","no","null","<div style=""font-size:60px; color:black;"">+</div>","","","","","","","","","","",""
"","null","image-keyboard-response","65","2.0.0","140972","pgvzc8kpy7d","turtle","no","null","stimuli/organized/EXEMPLAR/USED/Egame1.jpg","","","","","memory","false","exemplar","true","","",""
"","null","html-keyboard-response","66","2.0.0","141974","pgvzc8kpy7d","turtle","no","null","<div style=""font-size:60px; color:black;"">+</div>","","","","","","","","","","",""
"","null","image-keyboard-response","67","2.0.0","144977","pgvzc8kpy7d","turtle","no","null","stimuli/organized/STATE/USED/Sbabytoy1.JPG","","","","","memory","false","state","true","","",""
"","null","html-keyboard-response","68","2.0.0","145979","pgvzc8kpy7d","turtle","no","null","<div style=""font-size:60px; color:black;"">+</div>","","","","","","","","","","",""
"","null","image-keyboard-response","69","2.0.0","148982","pgvzc8kpy7d","turtle","no","null","stimuli/organized/EXEMPLAR/USED/Ebell1.jpg","","","","","memory","false","exemplar","true","","",""
"","null","html-keyboard-response","70","2.0.0","149984","pgvzc8kpy7d","turtle","no","null","<div style=""font-size:60px; color:black;"">+</div>","","","","","","","","","","",""
"","885","image-keyboard-response","71","2.0.0","152986","pgvzc8kpy7d","turtle","no"," ","stimuli/organized/EXEMPLAR/USED/Ecabinet2.jpg","","","","","memory","true","exemplar","true","","",""
"","null","html-keyboard-response","72","2.0.0","153989","pgvzc8kpy7d","turtle","no","null","<div style=""font-size:60px; color:green;"">+</div>","","","","","","","","","","",""
"","null","image-keyboard-response","73","2.0.0","156992","pgvzc8kpy7d","turtle","no","null","stimuli/organized/EXEMPLAR/USED/Econe1.jpg","","","","","memory","false","exemplar","true","","",""
"","null","html-keyboard-response","74","2.0.0","157994","pgvzc8kpy7d","turtle","no","null","<div style=""font-size:60px; color:black;"">+</div>","","","","","","","","","","",""
"","null","image-keyboard-response","75","2.0.0","160997","pgvzc8kpy7d","turtle","no","null","stimuli/organized/STATE/USED/Sscissors1.JPG","","","","","memory","false","state","true","","",""
"","null","html-keyboard-response","76","2.0.0","161999","pgvzc8kpy7d","turtle","no","null","<div style=""font-size:60px; color:black;"">+</div>","","","","","","","","","","",""
"","669","image-keyboard-response","77","2.0.0","165002","pgvzc8kpy7d","turtle","no"," ","stimuli/organized/Novel pairs (tested)/n10awindmill.jpg","","","","","memory","true","novel","true","","",""
"","null","html-keyboard-response","78","2.0.0","166004","pgvzc8kpy7d","turtle","no","null","<div style=""font-size:60px; color:green;"">+</div>","","","","","","","","","","",""
"","null","image-keyboard-response","79","2.0.0","169007","pgvzc8kpy7d","turtle","no","null","stimuli/organized/STATE/USED/Scookies1.JPG","","","","","memory","false","state","true","","",""
"","null","html-keyboard-response","80","2.0.0","170010","pgvzc8kpy7d","turtle","no","null","<div style=""font-size:60px; color:black;"">+</div>","","","","","","","","","","",""
"","null","image-keyboard-response","81","2.0.0","173013","pgvzc8kpy7d","turtle","no","null","stimuli/organized/STATE/USED/Sgrinder2.jpg","","","","","memory","false","state","true","","",""
"","null","html-keyboard-response","82","2.0.0","174015","pgvzc8kpy7d","turtle","no","null","<div style=""font-size:60px; color:black;"">+</div>","","","","","","","","","","",""
"","null","image-keyboard-response","83","2.0.0","177017","pgvzc8kpy7d","turtle","no","null","stimuli/organized/EXEMPLAR/USED/Efeather2.jpg","","","","","memory","false","exemplar","true","","",""
"","null","html-keyboard-response","84","2.0.0","178019","pgvzc8kpy7d","turtle","no","null","<div style=""font-size:60px; color:black;"">+</div>","","","","","","","","","","",""
"","null","image-keyboard-response","85","2.0.0","181022","pgvzc8kpy7d","turtle","no","null","stimuli/organized/STATE/USED/Seggs2.jpg","","","","","memory","false","state","true","","",""
"","null","html-keyboard-response","86","2.0.0","182024","pgvzc8kpy7d","turtle","no","null","<div style=""font-size:60px; color:black;"">+</div>","","","","","","","","","","",""
"","null","image-keyboard-response","87","2.0.0","185027","pgvzc8kpy7d","turtle","no","null","stimuli/organized/STATE/USED/Sdie1.jpg","","","","","memory","false","state","true","","",""
"","null","html-keyboard-response","88","2.0.0","186030","pgvzc8kpy7d","turtle","no","null","<div style=""font-size:60px; color:black;"">+</div>","","","","","","","","","","",""
"","null","image-keyboard-response","89","2.0.0","189032","pgvzc8kpy7d","turtle","no","null","stimuli/organized/EXEMPLAR/USED/Eglobe1.jpg","","","","","memory","false","exemplar","true","","",""
"","null","html-keyboard-response","90","2.0.0","190034","pgvzc8kpy7d","turtle","no","null","<div style=""font-size:60px; color:black;"">+</div>","","","","","","","","","","",""
"","null","image-keyboard-response","91","2.0.0","193037","pgvzc8kpy7d","turtle","no","null","stimuli/organized/STATE/USED/Sabacus2.jpg","","","","","memory","false","state","true","","",""
"","null","html-keyboard-response","92","2.0.0","194039","pgvzc8kpy7d","turtle","no","null","<div style=""font-size:60px; color:black;"">+</div>","","","","","","","","","","",""
"","null","image-keyboard-response","93","2.0.0","197042","pgvzc8kpy7d","turtle","no","null","stimuli/organized/STATE/USED/Sgiftbox2.jpg","","","","","memory","false","state","true","","",""
"","null","html-keyboard-response","94","2.0.0","198044","pgvzc8kpy7d","turtle","no","null","<div style=""font-size:60px; color:black;"">+</div>","","","","","","","","","","",""
"","null","image-keyboard-response","95","2.0.0","201048","pgvzc8kpy7d","turtle","no","null","stimuli/organized/Novel pairs (tested)/n07apotato.jpg","","","","","memory","false","novel","true","","",""
"","null","html-keyboard-response","96","2.0.0","202051","pgvzc8kpy7d","turtle","no","null","<div style=""font-size:60px; color:black;"">+</div>","","","","","","","","","","",""
"","null","image-keyboard-response","97","2.0.0","205054","pgvzc8kpy7d","turtle","no","null","stimuli/organized/STATE/USED/Sdrum1.jpg","","","","","memory","false","state","true","","",""
"","null","html-keyboard-response","98","2.0.0","206057","pgvzc8kpy7d","turtle","no","null","<div style=""font-size:60px; color:black;"">+</div>","","","","","","","","","","",""
"","null","image-keyboard-response","99","2.0.0","209059","pgvzc8kpy7d","turtle","no","null","stimuli/organized/STATE/USED/Scontainer2.JPG","","","","","memory","false","state","true","","",""
"","null","html-keyboard-response","100","2.0.0","210061","pgvzc8kpy7d","turtle","no","null","<div style=""font-size:60px; color:black;"">+</div>","","","","","","","","","","",""
"","null","image-keyboard-response","101","2.0.0","213064","pgvzc8kpy7d","turtle","no","null","stimuli/organized/Novel pairs (tested)/n12bwatch.jpg","","","","","memory","false","novel","true","","",""
"","null","html-keyboard-response","102","2.0.0","214066","pgvzc8kpy7d","turtle","no","null","<div style=""font-size:60px; color:black;"">+</div>","","","","","","","","","","",""
"","null","image-keyboard-response","103","2.0.0","217069","pgvzc8kpy7d","turtle","no","null","stimuli/organized/Novel pairs (tested)/n04bbandaid.jpg","","","","","memory","false","novel","true","","",""
"","null","html-keyboard-response","104","2.0.0","218072","pgvzc8kpy7d","turtle","no","null","<div style=""font-size:60px; color:black;"">+</div>","","","","","","","","","","",""
"","null","image-keyboard-response","105","2.0.0","221074","pgvzc8kpy7d","turtle","no","null","stimuli/organized/EXEMPLAR/USED/Ebicycle2.jpg","","","","","memory","false","exemplar","true","","",""
"","null","html-keyboard-response","106","2.0.0","222077","pgvzc8kpy7d","turtle","no","null","<div style=""font-size:60px; color:black;"">+</div>","","","","","","","","","","",""
"","null","image-keyboard-response","107","2.0.0","225080","pgvzc8kpy7d","turtle","no","null","stimuli/organized/Novel pairs (tested)/n08bpaperclip.jpg","","","","","memory","false","novel","true","","",""
"","null","html-keyboard-response","108","2.0.0","226083","pgvzc8kpy7d","turtle","no","null","<div style=""font-size:60px; color:black;"">+</div>","","","","","","","","","","",""
"","null","image-keyboard-response","109","2.0.0","229085","pgvzc8kpy7d","turtle","no","null","stimuli/organized/STATE/USED/Schinesefoodbox2.jpg","","","","","memory","false","state","true","","",""
"","null","html-keyboard-response","110","2.0.0","230088","pgvzc8kpy7d","turtle","no","null","<div style=""font-size:60px; color:black;"">+</div>","","","","","","","","","","",""
"","null","image-keyboard-response","111","2.0.0","233091","pgvzc8kpy7d","turtle","no","null","stimuli/organized/EXEMPLAR/USED/Efan1.jpg","","","","","memory","false","exemplar","true","","",""
"","null","html-keyboard-response","112","2.0.0","234093","pgvzc8kpy7d","turtle","no","null","<div style=""font-size:60px; color:black;"">+</div>","","","","","","","","","","",""
"","null","image-keyboard-response","113","2.0.0","237096","pgvzc8kpy7d","turtle","no","null","stimuli/organized/STATE/USED/Sgiftbag1.jpg","","","","","memory","false","state","true","","",""
"","null","html-keyboard-response","114","2.0.0","238099","pgvzc8kpy7d","turtle","no","null","<div style=""font-size:60px; color:black;"">+</div>","","","","","","","","","","",""
"","null","image-keyboard-response","115","2.0.0","241101","pgvzc8kpy7d","turtle","no","null","stimuli/organized/STATE/USED/Sdishes1.JPG","","","","","memory","false","state","true","","",""
"","null","html-keyboard-response","116","2.0.0","242103","pgvzc8kpy7d","turtle","no","null","<div style=""font-size:60px; color:black;"">+</div>","","","","","","","","","","",""
"","null","image-keyboard-response","117","2.0.0","245106","pgvzc8kpy7d","turtle","no","null","stimuli/organized/STATE/USED/Sdresser2.jpg","","","","","memory","false","state","true","","",""
"","null","html-keyboard-response","118","2.0.0","246108","pgvzc8kpy7d","turtle","no","null","<div style=""font-size:60px; color:black;"">+</div>","","","","","","","","","","",""
"","null","image-keyboard-response","119","2.0.0","249111","pgvzc8kpy7d","turtle","no","null","stimuli/organized/EXEMPLAR/USED/Ecar2.jpg","","","","","memory","false","exemplar","true","","",""
"","null","html-keyboard-response","120","2.0.0","250113","pgvzc8kpy7d","turtle","no","null","<div style=""font-size:60px; color:black;"">+</div>","","","","","","","","","","",""
"","null","image-keyboard-response","121","2.0.0","253116","pgvzc8kpy7d","turtle","no","null","stimuli/organized/STATE/USED/Sscanner2.JPG","","","","","memory","false","state","true","","",""
"","null","html-keyboard-response","122","2.0.0","254119","pgvzc8kpy7d","turtle","no","null","<div style=""font-size:60px; color:black;"">+</div>","","","","","","","","","","",""
"","null","image-keyboard-response","123","2.0.0","257121","pgvzc8kpy7d","turtle","no","null","stimuli/organized/Novel pairs (tested)/n06blipstick.jpg","","","","","memory","false","novel","true","","",""
"","null","html-keyboard-response","124","2.0.0","258124","pgvzc8kpy7d","turtle","no","null","<div style=""font-size:60px; color:black;"">+</div>","","","","","","","","","","",""
"","null","image-keyboard-response","125","2.0.0","261126","pgvzc8kpy7d","turtle","no","null","stimuli/organized/Novel pairs (tested)/n11abatteries.jpg","","","","","memory","false","novel","true","","",""
"","null","html-keyboard-response","126","2.0.0","262129","pgvzc8kpy7d","turtle","no","null","<div style=""font-size:60px; color:black;"">+</div>","","","","","","","","","","",""
"","null","image-keyboard-response","127","2.0.0","265132","pgvzc8kpy7d","turtle","no","null","stimuli/organized/Novel pairs (tested)/n16bhammer.jpg","","","","","memory","false","novel","true","","",""
"","null","html-keyboard-response","128","2.0.0","266134","pgvzc8kpy7d","turtle","no","null","<div style=""font-size:60px; color:black;"">+</div>","","","","","","","","","","",""
"","null","image-keyboard-response","129","2.0.0","269137","pgvzc8kpy7d","turtle","no","null","stimuli/organized/Novel pairs (tested)/n02bsafetypin.jpg","","","","","memory","false","novel","true","","",""
"","null","html-keyboard-response","130","2.0.0","270139","pgvzc8kpy7d","turtle","no","null","<div style=""font-size:60px; color:black;"">+</div>","","","","","","","","","","",""
"","null","image-keyboard-response","131","2.0.0","273142","pgvzc8kpy7d","turtle","no","null","stimuli/organized/STATE/USED/Spie2.JPG","","","","","memory","false","state","true","","",""
"","null","html-keyboard-response","132","2.0.0","274144","pgvzc8kpy7d","turtle","no","null","<div style=""font-size:60px; color:black;"">+</div>","","","","","","","","","","",""
"","null","image-keyboard-response","133","2.0.0","277147","pgvzc8kpy7d","turtle","no","null","stimuli/organized/STATE/USED/Sjuiceglass2.JPG","","","","","memory","false","state","true","","",""
"","null","html-keyboard-response","134","2.0.0","278150","pgvzc8kpy7d","turtle","no","null","<div style=""font-size:60px; color:black;"">+</div>","","","","","","","","","","",""
"","null","image-keyboard-response","135","2.0.0","281152","pgvzc8kpy7d","turtle","no","null","stimuli/organized/EXEMPLAR/USED/Eframe1.jpg","","","","","memory","false","exemplar","true","","",""
"","null","html-keyboard-response","136","2.0.0","282154","pgvzc8kpy7d","turtle","no","null","<div style=""font-size:60px; color:black;"">+</div>","","","","","","","","","","",""
"","727","image-keyboard-response","137","2.0.0","285157","pgvzc8kpy7d","turtle","no"," ","stimuli/organized/Novel pairs (tested)/n16bhammer.jpg","","","","","memory","true","novel","true","","",""
"","null","html-keyboard-response","138","2.0.0","286159","pgvzc8kpy7d","turtle","no","null","<div style=""font-size:60px; color:green;"">+</div>","","","","","","","","","","",""
"","null","image-keyboard-response","139","2.0.0","289162","pgvzc8kpy7d","turtle","no","null","stimuli/organized/STATE/USED/Sbox1.jpg","","","","","memory","false","state","true","","",""
"","null","html-keyboard-response","140","2.0.0","290164","pgvzc8kpy7d","turtle","no","null","<div style=""font-size:60px; color:black;"">+</div>","","","","","","","","","","",""
"","null","image-keyboard-response","141","2.0.0","293167","pgvzc8kpy7d","turtle","no","null","stimuli/organized/EXEMPLAR/USED/Egrapes2.jpg","","","","","memory","false","exemplar","true","","",""
"","null","html-keyboard-response","142","2.0.0","294168","pgvzc8kpy7d","turtle","no","null","<div style=""font-size:60px; color:black;"">+</div>","","","","","","","","","","",""
"","null","image-keyboard-response","143","2.0.0","297171","pgvzc8kpy7d","turtle","no","null","stimuli/organized/Novel pairs (tested)/n05bcactus.jpg","","","","","memory","false","novel","true","","",""
"","null","html-keyboard-response","144","2.0.0","298173","pgvzc8kpy7d","turtle","no","null","<div style=""font-size:60px; color:black;"">+</div>","","","","","","","","","","",""
"","null","image-keyboard-response","145","2.0.0","301176","pgvzc8kpy7d","turtle","no","null","stimuli/organized/EXEMPLAR/USED/Ebracelet1.jpg","","","","","memory","false","exemplar","true","","",""
"","null","html-keyboard-response","146","2.0.0","302178","pgvzc8kpy7d","turtle","no","null","<div style=""font-size:60px; color:black;"">+</div>","","","","","","","","","","",""
"","null","image-keyboard-response","147","2.0.0","305181","pgvzc8kpy7d","turtle","no","null","stimuli/organized/EXEMPLAR/USED/Egoggles2.jpg","","","","","memory","false","exemplar","true","","",""
"","null","html-keyboard-response","148","2.0.0","306183","pgvzc8kpy7d","turtle","no","null","<div style=""font-size:60px; color:black;"">+</div>","","","","","","","","","","",""
"","null","image-keyboard-response","149","2.0.0","309186","pgvzc8kpy7d","turtle","no","null","stimuli/organized/STATE/USED/Sbooks1.JPG","","","","","memory","false","state","true","","",""
"","null","html-keyboard-response","150","2.0.0","310189","pgvzc8kpy7d","turtle","no","null","<div style=""font-size:60px; color:black;"">+</div>","","","","","","","","","","",""
"","null","image-keyboard-response","151","2.0.0","313191","pgvzc8kpy7d","turtle","no","null","stimuli/organized/Novel pairs (tested)/n13bdustpan.jpg","","","","","memory","false","novel","true","","",""
"","null","html-keyboard-response","152","2.0.0","314194","pgvzc8kpy7d","turtle","no","null","<div style=""font-size:60px; color:black;"">+</div>","","","","","","","","","","",""
"","null","image-keyboard-response","153","2.0.0","317196","pgvzc8kpy7d","turtle","no","null","stimuli/organized/EXEMPLAR/USED/Edispenser1.jpg","","","","","memory","false","exemplar","true","","",""
"","null","html-keyboard-response","154","2.0.0","318199","pgvzc8kpy7d","turtle","no","null","<div style=""font-size:60px; color:black;"">+</div>","","","","","","","","","","",""
"","null","image-keyboard-response","155","2.0.0","321202","pgvzc8kpy7d","turtle","no","null","stimuli/organized/Novel pairs (tested)/n14bgolfball.jpg","","","","","memory","false","novel","true","","",""
"","null","html-keyboard-response","156","2.0.0","322205","pgvzc8kpy7d","turtle","no","null","<div style=""font-size:60px; color:black;"">+</div>","","","","","","","","","","",""
"","null","image-keyboard-response","157","2.0.0","325207","pgvzc8kpy7d","turtle","no","null","stimuli/organized/STATE/USED/Scoffeemaker2.JPG","","","","","memory","false","state","true","","",""
"","null","html-keyboard-response","158","2.0.0","326209","pgvzc8kpy7d","turtle","no","null","<div style=""font-size:60px; color:black;"">+</div>","","","","","","","","","","",""
"","null","image-keyboard-response","159","2.0.0","329212","pgvzc8kpy7d","turtle","no","null","stimuli/organized/EXEMPLAR/USED/Echocolatebar2.jpg","","","","","memory","false","exemplar","true","","",""
"","null","html-keyboard-response","160","2.0.0","330214","pgvzc8kpy7d","turtle","no","null","<div style=""font-size:60px; color:black;"">+</div>","","","","","","","","","","",""
"","null","image-keyboard-response","161","2.0.0","333217","pgvzc8kpy7d","turtle","no","null","stimuli/organized/Novel pairs (tested)/n20acarseat.jpg","","","","","memory","false","novel","true","","",""
"","null","html-keyboard-response","162","2.0.0","334219","pgvzc8kpy7d","turtle","no","null","<div style=""font-size:60px; color:black;"">+</div>","","","","","","","","","","",""
"","725","image-keyboard-response","163","2.0.0","337222","pgvzc8kpy7d","turtle","no"," ","stimuli/organized/Novel pairs (tested)/n14bgolfball.jpg","","","","","memory","true","novel","true","","",""
"","null","html-keyboard-response","164","2.0.0","338225","pgvzc8kpy7d","turtle","no","null","<div style=""font-size:60px; color:green;"">+</div>","","","","","","","","","","",""
"","791","image-keyboard-response","165","2.0.0","341227","pgvzc8kpy7d","turtle","no"," ","stimuli/organized/Novel pairs (tested)/n06blipstick.jpg","","","","","memory","true","novel","true","","",""
"","3530","html-button-response","166","2.0.0","344759","pgvzc8kpy7d","turtle","no","0","<p>You have completed the study phase.</p><p>Take a short break. Press the button below when you are ready to continue.</p>","","","","","","","","","","",""
"","4231","html-keyboard-response","167","2.0.0","348990","pgvzc8kpy7d","turtle","no"," ","<p>You will now be shown pairs of images.</p><p>Select the image you remember seeing during the study phase.</p><p>Focus on accuracy, not speed.</p><p>Press any key to begin.</p>","","","","","","","","","","",""
"","1441","html-button-response","168","2.0.0","350433","pgvzc8kpy7d","turtle","no","0","Which of these items did you see earlier?","","","","","test","","exemplar","true","stimuli/organized/EXEMPLAR/USED/Egame1.jpg","stimuli/organized/EXEMPLAR/USED/Egame2.jpg","0"
"","1258","html-button-response","169","2.0.0","351693","pgvzc8kpy7d","turtle","no","0","Which of these items did you see earlier?","","","","","test","","state","true","stimuli/organized/STATE/USED/Sgiftbox2.jpg","stimuli/organized/STATE/USED/Sgiftbox1.jpg","0"
"","981","html-button-response","170","2.0.0","352675","pgvzc8kpy7d","turtle","no","0","Which of these items did you see earlier?","","","","","test","","novel","true","stimuli/organized/Novel pairs (tested)/n07apotato.jpg","stimuli/organized/Novel pairs (tested)/n07bswimmingpool.jpg","0"
"","1048","html-button-response","171","2.0.0","353725","pgvzc8kpy7d","turtle","no","1","Which of these items did you see earlier?","","","","","test","","state","true","stimuli/organized/STATE/USED/Sfiretrucktoy1.jpg","stimuli/organized/STATE/USED/Sfiretrucktoy2.jpg","1"
"","2523","html-button-response","172","2.0.0","356250","pgvzc8kpy7d","turtle","no","0","Which of these items did you see earlier?","","","","","test","","novel","true","stimuli/organized/Novel pairs (tested)/n08bpaperclip.jpg","stimuli/organized/Novel pairs (tested)/n08aoven.jpg","0"
"","1582","html-button-response","173","2.0.0","357833","pgvzc8kpy7d","turtle","no","1","Which of these items did you see earlier?","","","","","test","","state","true","stimuli/organized/STATE/USED/Sbrushes1.jpg","stimuli/organized/STATE/USED/Sbrushes2.jpg","1"
"","1799","html-button-response","174","2.0.0","359633","pgvzc8kpy7d","turtle","no","0","Which of these items did you see earlier?","","","","","test","","state","true","stimuli/organized/STATE/USED/Sdonut2.jpg","stimuli/organized/STATE/USED/Sdonut1.jpg","0"
"","1057","html-button-response","175","2.0.0","360691","pgvzc8kpy7d","turtle","no","0","Which of these items did you see earlier?","","","","","test","","exemplar","true","stimuli/organized/EXEMPLAR/USED/Echocolatebar2.jpg","stimuli/organized/EXEMPLAR/USED/Echocolatebar1.jpg","0"
"","1267","html-button-response","176","2.0.0","361959","pgvzc8kpy7d","turtle","no","1","Which of these items did you see earlier?","","","","","test","","state","true","stimuli/organized/STATE/USED/Sbriefcase1.jpg","stimuli/organized/STATE/USED/Sbriefcase2.jpg","1"
"","1065","html-button-response","177","2.0.0","363026","pgvzc8kpy7d","turtle","no","0","Which of these items did you see earlier?","","","","","test","","exemplar","true","stimuli/organized/EXEMPLAR/USED/Eglobe1.jpg","stimuli/organized/EXEMPLAR/USED/Eglobe2.jpg","0"
"","1310","html-button-response","178","2.0.0","364337","pgvzc8kpy7d","turtle","no","0","Which of these items did you see earlier?","","","","","test","","state","true","stimuli/organized/STATE/USED/Spotpan1.JPG","stimuli/organized/STATE/USED/Spotpan2.JPG","0"
"","1140","html-button-response","179","2.0.0","365479","pgvzc8kpy7d","turtle","no","0","Which of these items did you see earlier?","","","","","test","","state","true","stimuli/organized/STATE/USED/Sbureau1.JPG","stimuli/organized/STATE/USED/Sbureau2.JPG","0"
"","1324","html-button-response","180","2.0.0","366804","pgvzc8kpy7d","turtle","no","0","Which of these items did you see earlier?","","","","","test","","state","true","stimuli/organized/STATE/USED/Sdresser2.jpg","stimuli/organized/STATE/USED/Sdresser1.jpg","0"
"","2511","html-button-response","181","2.0.0","369316","pgvzc8kpy7d","turtle","no","1","Which of these items did you see earlier?","","","","","test","","state","true","stimuli/organized/STATE/USED/Sdie1.jpg","stimuli/organized/STATE/USED/Sdie2.jpg","1"
"","1583","html-button-response","182","2.0.0","370900","pgvzc8kpy7d","turtle","no","0","Which of these items did you see earlier?","","","","","test","","state","true","stimuli/organized/STATE/USED/Seggs2.jpg","stimuli/organized/STATE/USED/Seggs1.jpg","0"
"","990","html-button-response","183","2.0.0","371891","pgvzc8kpy7d","turtle","no","0","Which of these items did you see earlier?","","","","","test","","novel","true","stimuli/organized/Novel pairs (tested)/n04bbandaid.jpg","stimuli/organized/Novel pairs (tested)/n04ayarn.jpg","0"
"","1007","html-button-response","184","2.0.0","372900","pgvzc8kpy7d","turtle","no","0","Which of these items did you see earlier?","","","","","test","","state","true","stimuli/organized/STATE/USED/Sbabytoy1.JPG","stimuli/organized/STATE/USED/Sbabytoy2.JPG","0"
"","1319","html-button-response","185","2.0.0","374220","pgvzc8kpy7d","turtle","no","1","Which of these items did you see earlier?","","","","","test","","exemplar","true","stimuli/organized/EXEMPLAR/USED/Ecabinet2.jpg","stimuli/organized/EXEMPLAR/USED/Ecabinet1.jpg","1"
"","1316","html-button-response","186","2.0.0","375537","pgvzc8kpy7d","turtle","no","1","Which of these items did you see earlier?","","","","","test","","novel","true","stimuli/organized/Novel pairs (tested)/n09apenguin.jpg","stimuli/organized/Novel pairs (tested)/n09bsaddle.jpg","1"
"","1125","html-button-response","187","2.0.0","376663","pgvzc8kpy7d","turtle","no","1","Which of these items did you see earlier?","","","","","test","","exemplar","true","stimuli/organized/EXEMPLAR/USED/Ecar2.jpg","stimuli/organized/EXEMPLAR/USED/Ecar1.jpg","1"
"","970","html-button-response","188","2.0.0","377634","pgvzc8kpy7d","turtle","no","0","Which of these items did you see earlier?","","","","","test","","state","true","stimuli/organized/STATE/USED/Sscissors1.JPG","stimuli/organized/STATE/USED/Sscissors2.JPG","0"
"","857","html-button-response","189","2.0.0","378493","pgvzc8kpy7d","turtle","no","0","Which of these items did you see earlier?","","","","","test","","novel","true","stimuli/organized/Novel pairs (tested)/n06blipstick.jpg","stimuli/organized/Novel pairs (tested)/n06acane.jpg","0"
"","947","html-button-response","190","2.0.0","379441","pgvzc8kpy7d","turtle","no","0","Which of these items did you see earlier?","","","","","test","","novel","true","stimuli/organized/Novel pairs (tested)/n03bbagel.jpg","stimuli/organized/Novel pairs (tested)/n03acamel.jpg","0"
"","932","html-button-response","191","2.0.0","380375","pgvzc8kpy7d","turtle","no","1","Which of these items did you see earlier?","","","","","test","","novel","true","stimuli/organized/Novel pairs (tested)/n16bhammer.jpg","stimuli/organized/Novel pairs (tested)/n16abananas.jpg","1"
"","1949","html-button-response","192","2.0.0","382324","pgvzc8kpy7d","turtle","no","0","Which of these items did you see earlier?","","","","","test","","state","true","stimuli/organized/STATE/USED/Sdrum1.jpg","stimuli/organized/STATE/USED/Sdrum2.jpg","0"
"","999","html-button-response","193","2.0.0","383325","pgvzc8kpy7d","turtle","no","1","Which of these items did you see earlier?","","","","","test","","novel","true","stimuli/organized/Novel pairs (tested)/n01bcoin.jpg","stimuli/organized/Novel pairs (tested)/n01aladybug.jpg","1"
"","1000","html-button-response","194","2.0.0","384326","pgvzc8kpy7d","turtle","no","1","Which of these items did you see earlier?","","","","","test","","state","true","stimuli/organized/STATE/USED/Sbottles2.JPG","stimuli/organized/STATE/USED/Sbottles1.JPG","1"
"","1097","html-button-response","195","2.0.0","385425","pgvzc8kpy7d","turtle","no","0","Which of these items did you see earlier?","","","","","test","","state","true","stimuli/organized/STATE/USED/Sbelt2.jpg","stimuli/organized/STATE/USED/Sbelt1.jpg","0"
"","1324","html-button-response","196","2.0.0","386750","pgvzc8kpy7d","turtle","no","0","Which of these items did you see earlier?","","","","","test","","state","true","stimuli/organized/STATE/USED/Sbreadbox1.JPG","stimuli/organized/STATE/USED/Sbreadbox2.JPG","0"
"","1049","html-button-response","197","2.0.0","387800","pgvzc8kpy7d","turtle","no","0","Which of these items did you see earlier?","","","","","test","","novel","true","stimuli/organized/Novel pairs (tested)/n02bsafetypin.jpg","stimuli/organized/Novel pairs (tested)/n02aaxe.jpg","0"
"","1665","html-button-response","198","2.0.0","389466","pgvzc8kpy7d","turtle","no","0","Which of these items did you see earlier?","","","","","test","","novel","true","stimuli/organized/Novel pairs (tested)/n11abatteries.jpg","stimuli/organized/Novel pairs (tested)/n11bsock.jpg","0"
"","1482","html-button-response","199","2.0.0","390950","pgvzc8kpy7d","turtle","no","0","Which of these items did you see earlier?","","","","","test","","state","true","stimuli/organized/STATE/USED/Sgiftbag1.jpg","stimuli/organized/STATE/USED/Sgiftbag2.jpg","0"
"","1007","html-button-response","200","2.0.0","391958","pgvzc8kpy7d","turtle","no","1","Which of these items did you see earlier?","","","","","test","","exemplar","true","stimuli/organized/EXEMPLAR/USED/Edispenser1.jpg","stimuli/organized/EXEMPLAR/USED/Edispenser2.jpg","1"
"","1082","html-button-response","201","2.0.0","393041","pgvzc8kpy7d","turtle","no","0","Which of these items did you see earlier?","","","","","test","","state","true","stimuli/organized/STATE/USED/Sapplesgreenbasket1.jpg","stimuli/organized/STATE/USED/Sapplesgreenbasket2.jpg","0"
"","1284","html-button-response","202","2.0.0","394326","pgvzc8kpy7d","turtle","no","1","Which of these items did you see earlier?","","","","","test","","novel","true","stimuli/organized/Novel pairs (tested)/n17bweddingdress.jpg","stimuli/organized/Novel pairs (tested)/n17avendingmachine.jpg","1"
"","1672","html-button-response","203","2.0.0","396000","pgvzc8kpy7d","turtle","no","1","Which of these items did you see earlier?","","","","","test","","exemplar","true","stimuli/organized/EXEMPLAR/USED/Ebicycle2.jpg","stimuli/organized/EXEMPLAR/USED/Ebicycle1.jpg","1"
"","957","html-button-response","204","2.0.0","396958","pgvzc8kpy7d","turtle","no","1","Which of these items did you see earlier?","","","","","test","","exemplar","true","stimuli/organized/EXEMPLAR/USED/Efeather2.jpg","stimuli/organized/EXEMPLAR/USED/Efeather1.jpg","1"
"","898","html-button-response","205","2.0.0","397857","pgvzc8kpy7d","turtle","no","0","Which of these items did you see earlier?","","","","","test","","novel","true","stimuli/organized/Novel pairs (tested)/n05bcactus.jpg","stimuli/organized/Novel pairs (tested)/n05abarrel.jpg","0"
"","1207","html-button-response","206","2.0.0","399066","pgvzc8kpy7d","turtle","no","0","Which of these items did you see earlier?","","","","","test","","exemplar","true","stimuli/organized/EXEMPLAR/USED/Ebread1.jpg","stimuli/organized/EXEMPLAR/USED/Ebread2.jpg","0"
"","1115","html-button-response","207","2.0.0","400183","pgvzc8kpy7d","turtle","no","1","Which of these items did you see earlier?","","","","","test","","state","true","stimuli/organized/STATE/USED/Sphone2.JPG","stimuli/organized/STATE/USED/Sphone1.JPG","1"
"","1157","html-button-response","208","2.0.0","401341","pgvzc8kpy7d","turtle","no","0","Which of these items did you see earlier?","","","","","test","","state","true","stimuli/organized/STATE/USED/Spie2.JPG","stimuli/organized/STATE/USED/Spie1.JPG","0"
"","1115","html-button-response","209","2.0.0","402458","pgvzc8kpy7d","turtle","no","1","Which of these items did you see earlier?","","","","","test","","state","true","stimuli/organized/STATE/USED/Shairbrush1.jpg","stimuli/organized/STATE/USED/Shairbrush2.jpg","1"
"","1124","html-button-response","210","2.0.0","403583","pgvzc8kpy7d","turtle","no","0","Which of these items did you see earlier?","","","","","test","","exemplar","true","stimuli/organized/EXEMPLAR/USED/Ecamera2.jpg","stimuli/organized/EXEMPLAR/USED/Ecamera1.jpg","0"
"","1824","html-button-response","211","2.0.0","405407","pgvzc8kpy7d","turtle","no","1","Which of these items did you see earlier?","","","","","test","","exemplar","true","stimuli/organized/EXEMPLAR/USED/Eframe1.jpg","stimuli/organized/EXEMPLAR/USED/Eframe2.jpg","1"
"","933","html-button-response","212","2.0.0","406341","pgvzc8kpy7d","turtle","no","1","Which of these items did you see earlier?","","","","","test","","exemplar","true","stimuli/organized/EXEMPLAR/USED/Ebell1.jpg","stimuli/organized/EXEMPLAR/USED/Ebell2.jpg","1"
"","928","html-button-response","213","2.0.0","407270","pgvzc8kpy7d","turtle","no","0","Which of these items did you see earlier?","","","","","test","","exemplar","true","stimuli/organized/EXEMPLAR/USED/Egoggles2.jpg","stimuli/organized/EXEMPLAR/USED/Egoggles1.jpg","0"
"","994","html-button-response","214","2.0.0","408266","pgvzc8kpy7d","turtle","no","1","Which of these items did you see earlier?","","","","","test","","novel","true","stimuli/organized/Novel pairs (tested)/n13bdustpan.jpg","stimuli/organized/Novel pairs (tested)/n13ablueberries.jpg","1"
"","1007","html-button-response","215","2.0.0","409275","pgvzc8kpy7d","turtle","no","0","Which of these items did you see earlier?","","","","","test","","novel","true","stimuli/organized/Novel pairs (tested)/n19apickle.jpg","stimuli/organized/Novel pairs (tested)/n19bhairbrush.jpg","0"
"","941","html-button-response","216","2.0.0","410217","pgvzc8kpy7d","turtle","no","0","Which of these items did you see earlier?","","","","","test","","exemplar","true","stimuli/organized/EXEMPLAR/USED/Egrapes2.jpg","stimuli/organized/EXEMPLAR/USED/Egrapes1.jpg","0"
"","952","html-button-response","217","2.0.0","411170","pgvzc8kpy7d","turtle","no","1","Which of these items did you see earlier?","","","","","test","","state","true","stimuli/organized/STATE/USED/Scoffeemaker2.JPG","stimuli/organized/STATE/USED/Scoffeemaker1.JPG","1"
"","1971","html-button-response","218","2.0.0","413143","pgvzc8kpy7d","turtle","no","0","Which of these items did you see earlier?","","","","","test","","state","true","stimuli/organized/STATE/USED/Schinesefoodbox2.jpg","stimuli/organized/STATE/USED/Schinesefoodbox1.jpg","0"
"","955","html-button-response","219","2.0.0","414099","pgvzc8kpy7d","turtle","no","1","Which of these items did you see earlier?","","","","","test","","state","true","stimuli/organized/STATE/USED/Sflask2.jpg","stimuli/organized/STATE/USED/Sflask1.jpg","1"
"","2792","html-button-response","220","2.0.0","416892","pgvzc8kpy7d","turtle","no","1","Which of these items did you see earlier?","","","","","test","","state","true","stimuli/organized/STATE/USED/Scookies1.JPG","stimuli/organized/STATE/USED/Scookies2.JPG","1"
"","1207","html-button-response","221","2.0.0","418101","pgvzc8kpy7d","turtle","no","0","Which of these items did you see earlier?","","","","","test","","state","true","stimuli/organized/STATE/USED/Sdryer1.jpg","stimuli/organized/STATE/USED/Sdryer2.jpg","0"
"","1031","html-button-response","222","2.0.0","419133","pgvzc8kpy7d","turtle","no","1","Which of these items did you see earlier?","","","","","test","","state","true","stimuli/organized/STATE/USED/Sjuiceglass2.JPG","stimuli/organized/STATE/USED/Sjuiceglass1.JPG","1"
"","982","html-button-response","223","2.0.0","420116","pgvzc8kpy7d","turtle","no","1","Which of these items did you see earlier?","","","","","test","","state","true","stimuli/organized/STATE/USED/Sgrinder2.jpg","stimuli/organized/STATE/USED/Sgrinder1.jpg","1"
"","1182","html-button-response","224","2.0.0","421299","pgvzc8kpy7d","turtle","no","0","Which of these items did you see earlier?","","","","","test","","state","true","stimuli/organized/STATE/USED/Sbox1.jpg","stimuli/organized/STATE/USED/Sbox2.jpg","0"
"","1658","html-button-response","225","2.0.0","422959","pgvzc8kpy7d","turtle","no","0","Which of these items did you see earlier?","","","","","test","","exemplar","true","stimuli/organized/EXEMPLAR/USED/Ebasket1.jpg","stimuli/organized/EXEMPLAR/USED/Ebasket2.jpg","0"
"","1072","html-button-response","226","2.0.0","424032","pgvzc8kpy7d","turtle","no","1","Which of these items did you see earlier?","","","","","test","","novel","true","stimuli/organized/Novel pairs (tested)/n20acarseat.jpg","stimuli/organized/Novel pairs (tested)/n20bshelf.jpg","1"
"","1001","html-button-response","227","2.0.0","425034","pgvzc8kpy7d","turtle","no","1","Which of these items did you see earlier?","","","","","test","","novel","true","stimuli/organized/Novel pairs (tested)/n18apretzel.jpg","stimuli/organized/Novel pairs (tested)/n18bsnail.jpg","1"
"","1960","html-button-response","228","2.0.0","426995","pgvzc8kpy7d","turtle","no","0","Which of these items did you see earlier?","","","","","test","","state","true","stimuli/organized/STATE/USED/Scontainer2.JPG","stimuli/organized/STATE/USED/Scontainer1.JPG","0"
"","1348","html-button-response","229","2.0.0","428345","pgvzc8kpy7d","turtle","no","0","Which of these items did you see earlier?","","","","","test","","state","true","stimuli/organized/STATE/USED/Sabacus2.jpg","stimuli/organized/STATE/USED/Sabacus1.jpg","0"
"","1112","html-button-response","230","2.0.0","429458","pgvzc8kpy7d","turtle","no","1","Which of these items did you see earlier?","","","","","test","","novel","true","stimuli/organized/Novel pairs (tested)/n12bwatch.jpg","stimuli/organized/Novel pairs (tested)/n12atelescope.jpg","1"
"","1057","html-button-response","231","2.0.0","430516","pgvzc8kpy7d","turtle","no","0","Which of these items did you see earlier?","","","","","test","","state","true","stimuli/organized/STATE/USED/Slaptop1.JPG","stimuli/organized/STATE/USED/Slaptop2.JPG","0"
"","1007","html-button-response","232","2.0.0","431524","pgvzc8kpy7d","turtle","no","1","Which of these items did you see earlier?","","","","","test","","novel","true","stimuli/organized/Novel pairs (tested)/n15bfootball.jpg","stimuli/organized/Novel pairs (tested)/n15aspiderweb.jpg","1"
"","1012","html-button-response","233","2.0.0","432537","pgvzc8kpy7d","turtle","no","0","Which of these items did you see earlier?","","","","","test","","novel","true","stimuli/organized/Novel pairs (tested)/n10awindmill.jpg","stimuli/organized/Novel pairs (tested)/n10bturkey.jpg","0"
"","1015","html-button-response","234","2.0.0","433553","pgvzc8kpy7d","turtle","no","0","Which of these items did you see earlier?","","","","","test","","exemplar","true","stimuli/organized/EXEMPLAR/USED/Ebracelet1.jpg","stimuli/organized/EXEMPLAR/USED/Ebracelet2.jpg","0"
"","1032","html-button-response","235","2.0.0","434587","pgvzc8kpy7d","turtle","no","0","Which of these items did you see earlier?","","","","","test","","exemplar","true","stimuli/organized/EXEMPLAR/USED/Efan1.jpg","stimuli/organized/EXEMPLAR/USED/Efan2.jpg","0"
"","1028","html-button-response","236","2.0.0","435616","pgvzc8kpy7d","turtle","no","1","Which of these items did you see earlier?","","","","","test","","exemplar","true","stimuli/organized/EXEMPLAR/USED/Ecalculator1.jpg","stimuli/organized/EXEMPLAR/USED/Ecalculator2.jpg","1"
"","999","html-button-response","237","2.0.0","436616","pgvzc8kpy7d","turtle","no","0","Which of these items did you see earlier?","","","","","test","","exemplar","true","stimuli/organized/EXEMPLAR/USED/Echisel2.jpg","stimuli/organized/EXEMPLAR/USED/Echisel1.jpg","0"
"","1332","html-button-response","238","2.0.0","437949","pgvzc8kpy7d","turtle","no","1","Which of these items did you see earlier?","","","","","test","","state","true","stimuli/organized/STATE/USED/Sscanner2.JPG","stimuli/organized/STATE/USED/Sscanner1.JPG","1"
"","1067","html-button-response","239","2.0.0","439017","pgvzc8kpy7d","turtle","no","1","Which of these items did you see earlier?","","","","","test","","state","true","stimuli/organized/STATE/USED/Sbooks1.JPG","stimuli/organized/STATE/USED/Sbooks2.JPG","1"
"","881","html-button-response","240","2.0.0","439899","pgvzc8kpy7d","turtle","no","0","Which of these items did you see earlier?","","","","","test","","exemplar","true","stimuli/organized/EXEMPLAR/USED/Econe1.jpg","stimuli/organized/EXEMPLAR/USED/Econe2.jpg","0"
"","1149","html-button-response","241","2.0.0","441049","pgvzc8kpy7d","turtle","no","1","Which of these items did you see earlier?","","","","","test","","state","true","stimuli/organized/STATE/USED/Scrayons1.jpg","stimuli/organized/STATE/USED/Scrayons2.jpg","1"
"","1453","html-button-response","242","2.0.0","442503","pgvzc8kpy7d","turtle","no","1","Which of these items did you see earlier?","","","","","test","","state","true","stimuli/organized/STATE/USED/Sdishes1.JPG","stimuli/organized/STATE/USED/Sdishes2.JPG","1"
"","974","html-button-response","243","2.0.0","443478","pgvzc8kpy7d","turtle","no","1","Which of these items did you see earlier?","","","","","test","","novel","true","stimuli/organized/Novel pairs (tested)/n14bgolfball.jpg","stimuli/organized/Novel pairs (tested)/n14acigarette.jpg","1"
"","7553","survey-html-form","244","2.0.0","451033","pgvzc8kpy7d","turtle","no","{""age"":""22"",""gender"":""female"",""memory_experiment_experience"":""yes""}","","","","","","","","","","","",""
"","18798","survey-text","245","2.0.0","469833","pgvzc8kpy7d","turtle","no","{""task_guess"":""if greater perceptual difference helps with memory?""}","","","","","","","","","","","",""
"","1503","survey-text","246","2.0.0","471338","pgvzc8kpy7d","turtle","no","{""technical_issues_question"":""no""}","","","","","","","","","","","",""
