"success","rt","trial_type","trial_index","plugin_version","time_elapsed","random_id","participant","technical_issues","response","stimulus","timeout","failed_images","failed_audio","failed_video","trial_phase","is_repeat","test_type","correct","old_image","new_image","correct_position"
"true","1832","fullscreen","0","null","2836","pj9a1xup6od","dolphin","no","","","","","","","","","","","","",""
"","8082","survey-text","1","2.0.0","10922","pj9a1xup6od","dolphin","no","{""participant_id"":""dolphin""}","","","","","","","","","","","",""
"","6431","html-keyboard-response","2","2.0.0","17355","pj9a1xup6od","dolphin","no"," ","
      <p>In this experiment, a series of objects will be displayed.</p>
      <p>Try to memorize as much as possible about the objects.</p>
      <p>If the image is a <strong> repeat</strong>, press the SPACEBAR.</p>
      <p>Press any key to begin.</p>
    ","","","","","","","","","","",""
"true","","preload","3","2.0.0","18031","pj9a1xup6od","dolphin","no","","","false","[]","[]","[]","","","","","","",""
"","null","html-keyboard-response","4","2.0.0","19034","pj9a1xup6od","dolphin","no","null","<div style=""font-size:60px;"">+</div>","","","","","","","","","","",""
"","null","image-keyboard-response","5","2.0.0","22040","pj9a1xup6od","dolphin","no","null","stimuli/organized/STATE/USED/Sdresser2.jpg","","","","","memory","false","state","true","","",""
"","null","html-keyboard-response","6","2.0.0","23044","pj9a1xup6od","dolphin","no","null","<div style=""font-size:60px; color:black;"">+</div>","","","","","","","","","","",""
"","null","image-keyboard-response","7","2.0.0","26048","pj9a1xup6od","dolphin","no","null","stimuli/organized/STATE/USED/Sflask2.jpg","","","","","memory","false","state","true","","",""
"","null","html-keyboard-response","8","2.0.0","27051","pj9a1xup6od","dolphin","no","null","<div style=""font-size:60px; color:black;"">+</div>","","","","","","","","","","",""
"","null","image-keyboard-response","9","2.0.0","30055","pj9a1xup6od","dolphin","no","null","stimuli/organized/STATE/USED/Sgiftbag1.jpg","","","","","memory","false","state","true","","",""
"","null","html-keyboard-response","10","2.0.0","31057","pj9a1xup6od","dolphin","no","null","<div style=""font-size:60px; color:black;"">+</div>","","","","","","","","","","",""
"","null","image-keyboard-response","11","2.0.0","34061","pj9a1xup6od","dolphin","no","null","stimuli/organized/Novel pairs (tested)/n13bdustpan.jpg","","","","","memory","false","novel","true","","",""
"","null","html-keyboard-response","12","2.0.0","35065","pj9a1xup6od","dolphin","no","null","<div style=""font-size:60px; color:black;"">+</div>","","","","","","","","","","",""
"","null","image-keyboard-response","13","2.0.0","38069","pj9a1xup6od","dolphin","no","null","stimuli/organized/EXEMPLAR/USED/Ebicycle1.jpg","","","","","memory","false","exemplar","true","","",""
"","null","html-keyboard-response","14","2.0.0","39072","pj9a1xup6od","dolphin","no","null","<div style=""font-size:60px; color:black;"">+</div>","","","","","","","","","","",""
"","null","image-keyboard-response","15","2.0.0","42076","pj9a1xup6od","dolphin","no","null","stimuli/organized/STATE/USED/Sbelt2.jpg","","","","","memory","false","state","true","","",""
"","null","html-keyboard-response","16","2.0.0","43079","pj9a1xup6od","dolphin","no","null","<div style=""font-size:60px; color:black;"">+</div>","","","","","","","","","","",""
"","null","image-keyboard-response","17","2.0.0","46082","pj9a1xup6od","dolphin","no","null","stimuli/organized/STATE/USED/Spie2.JPG","","","","","memory","false","state","true","","",""
"","null","html-keyboard-response","18","2.0.0","47086","pj9a1xup6od","dolphin","no","null","<div style=""font-size:60px; color:black;"">+</div>","","","","","","","","","","",""
"","null","image-keyboard-response","19","2.0.0","50089","pj9a1xup6od","dolphin","no","null","stimuli/organized/STATE/USED/Slaptop2.JPG","","","","","memory","false","state","true","","",""
"","null","html-keyboard-response","20","2.0.0","51093","pj9a1xup6od","dolphin","no","null","<div style=""font-size:60px; color:black;"">+</div>","","","","","","","","","","",""
"","null","image-keyboard-response","21","2.0.0","54097","pj9a1xup6od","dolphin","no","null","stimuli/organized/Novel pairs (tested)/n11bsock.jpg","","","","","memory","false","novel","true","","",""
"","null","html-keyboard-response","22","2.0.0","55099","pj9a1xup6od","dolphin","no","null","<div style=""font-size:60px; color:black;"">+</div>","","","","","","","","","","",""
"","null","image-keyboard-response","23","2.0.0","58104","pj9a1xup6od","dolphin","no","null","stimuli/organized/STATE/USED/Sjuiceglass2.JPG","","","","","memory","false","state","true","","",""
"","null","html-keyboard-response","24","2.0.0","59108","pj9a1xup6od","dolphin","no","null","<div style=""font-size:60px; color:black;"">+</div>","","","","","","","","","","",""
"","null","image-keyboard-response","25","2.0.0","62112","pj9a1xup6od","dolphin","no","null","stimuli/organized/STATE/USED/Sbooks2.JPG","","","","","memory","false","state","true","","",""
"","null","html-keyboard-response","26","2.0.0","63115","pj9a1xup6od","dolphin","no","null","<div style=""font-size:60px; color:black;"">+</div>","","","","","","","","","","",""
"","null","image-keyboard-response","27","2.0.0","66119","pj9a1xup6od","dolphin","no","null","stimuli/organized/STATE/USED/Sbabytoy1.JPG","","","","","memory","false","state","true","","",""
"","null","html-keyboard-response","28","2.0.0","67122","pj9a1xup6od","dolphin","no","null","<div style=""font-size:60px; color:black;"">+</div>","","","","","","","","","","",""
"","null","image-keyboard-response","29","2.0.0","70126","pj9a1xup6od","dolphin","no","null","stimuli/organized/EXEMPLAR/USED/Efan1.jpg","","","","","memory","false","exemplar","true","","",""
"","null","html-keyboard-response","30","2.0.0","71130","pj9a1xup6od","dolphin","no","null","<div style=""font-size:60px; color:black;"">+</div>","","","","","","","","","","",""
"","null","image-keyboard-response","31","2.0.0","74134","pj9a1xup6od","dolphin","no","null","stimuli/organized/Novel pairs (tested)/n12bwatch.jpg","","","","","memory","false","novel","true","","",""
"","null","html-keyboard-response","32","2.0.0","75136","pj9a1xup6od","dolphin","no","null","<div style=""font-size:60px; color:black;"">+</div>","","","","","","","","","","",""
"","null","image-keyboard-response","33","2.0.0","78140","pj9a1xup6od","dolphin","no","null","stimuli/organized/EXEMPLAR/USED/Eglobe2.jpg","","","","","memory","false","exemplar","true","","",""
"","null","html-keyboard-response","34","2.0.0","79143","pj9a1xup6od","dolphin","no","null","<div style=""font-size:60px; color:black;"">+</div>","","","","","","","","","","",""
"","null","image-keyboard-response","35","2.0.0","82147","pj9a1xup6od","dolphin","no","null","stimuli/organized/STATE/USED/Sdie2.jpg","","","","","memory","false","state","true","","",""
"","null","html-keyboard-response","36","2.0.0","83150","pj9a1xup6od","dolphin","no","null","<div style=""font-size:60px; color:black;"">+</div>","","","","","","","","","","",""
"","null","image-keyboard-response","37","2.0.0","86154","pj9a1xup6od","dolphin","no","null","stimuli/organized/STATE/USED/Sgrinder1.jpg","","","","","memory","false","state","true","","",""
"","null","html-keyboard-response","38","2.0.0","87156","pj9a1xup6od","dolphin","no","null","<div style=""font-size:60px; color:black;"">+</div>","","","","","","","","","","",""
"","null","image-keyboard-response","39","2.0.0","90160","pj9a1xup6od","dolphin","no","null","stimuli/organized/EXEMPLAR/USED/Egrapes1.jpg","","","","","memory","false","exemplar","true","","",""
"","null","html-keyboard-response","40","2.0.0","91162","pj9a1xup6od","dolphin","no","null","<div style=""font-size:60px; color:black;"">+</div>","","","","","","","","","","",""
"","null","image-keyboard-response","41","2.0.0","94166","pj9a1xup6od","dolphin","no","null","stimuli/organized/EXEMPLAR/USED/Echocolatebar2.jpg","","","","","memory","false","exemplar","true","","",""
"","null","html-keyboard-response","42","2.0.0","95169","pj9a1xup6od","dolphin","no","null","<div style=""font-size:60px; color:black;"">+</div>","","","","","","","","","","",""
"","null","image-keyboard-response","43","2.0.0","98173","pj9a1xup6od","dolphin","no","null","stimuli/organized/EXEMPLAR/USED/Ebracelet2.jpg","","","","","memory","false","exemplar","true","","",""
"","null","html-keyboard-response","44","2.0.0","99176","pj9a1xup6od","dolphin","no","null","<div style=""font-size:60px; color:black;"">+</div>","","","","","","","","","","",""
"","null","image-keyboard-response","45","2.0.0","102180","pj9a1xup6od","dolphin","no","null","stimuli/organized/Novel pairs (tested)/n01aladybug.jpg","","","","","memory","false","novel","true","","",""
"","null","html-keyboard-response","46","2.0.0","103183","pj9a1xup6od","dolphin","no","null","<div style=""font-size:60px; color:black;"">+</div>","","","","","","","","","","",""
"","null","image-keyboard-response","47","2.0.0","106187","pj9a1xup6od","dolphin","no","null","stimuli/organized/EXEMPLAR/USED/Ebasket1.jpg","","","","","memory","false","exemplar","true","","",""
"","null","html-keyboard-response","48","2.0.0","107190","pj9a1xup6od","dolphin","no","null","<div style=""font-size:60px; color:black;"">+</div>","","","","","","","","","","",""
"","null","image-keyboard-response","49","2.0.0","110194","pj9a1xup6od","dolphin","no","null","stimuli/organized/EXEMPLAR/USED/Ebell1.jpg","","","","","memory","false","exemplar","true","","",""
"","null","html-keyboard-response","50","2.0.0","111197","pj9a1xup6od","dolphin","no","null","<div style=""font-size:60px; color:black;"">+</div>","","","","","","","","","","",""
"","null","image-keyboard-response","51","2.0.0","114201","pj9a1xup6od","dolphin","no","null","stimuli/organized/STATE/USED/Sbrushes2.jpg","","","","","memory","false","state","true","","",""
"","null","html-keyboard-response","52","2.0.0","115203","pj9a1xup6od","dolphin","no","null","<div style=""font-size:60px; color:black;"">+</div>","","","","","","","","","","",""
"","null","image-keyboard-response","53","2.0.0","118207","pj9a1xup6od","dolphin","no","null","stimuli/organized/EXEMPLAR/USED/Ecabinet2.jpg","","","","","memory","false","exemplar","true","","",""
"","null","html-keyboard-response","54","2.0.0","119210","pj9a1xup6od","dolphin","no","null","<div style=""font-size:60px; color:black;"">+</div>","","","","","","","","","","",""
"","null","image-keyboard-response","55","2.0.0","122214","pj9a1xup6od","dolphin","no","null","stimuli/organized/STATE/USED/Scookies1.JPG","","","","","memory","false","state","true","","",""
"","null","html-keyboard-response","56","2.0.0","123217","pj9a1xup6od","dolphin","no","null","<div style=""font-size:60px; color:black;"">+</div>","","","","","","","","","","",""
"","null","image-keyboard-response","57","2.0.0","126221","pj9a1xup6od","dolphin","no","null","stimuli/organized/STATE/USED/Sabacus2.jpg","","","","","memory","false","state","true","","",""
"","null","html-keyboard-response","58","2.0.0","127224","pj9a1xup6od","dolphin","no","null","<div style=""font-size:60px; color:black;"">+</div>","","","","","","","","","","",""
"","null","image-keyboard-response","59","2.0.0","130228","pj9a1xup6od","dolphin","no","null","stimuli/organized/EXEMPLAR/USED/Edispenser2.jpg","","","","","memory","false","exemplar","true","","",""
"","null","html-keyboard-response","60","2.0.0","131231","pj9a1xup6od","dolphin","no","null","<div style=""font-size:60px; color:black;"">+</div>","","","","","","","","","","",""
"","null","image-keyboard-response","61","2.0.0","134235","pj9a1xup6od","dolphin","no","null","stimuli/organized/STATE/USED/Sscanner1.JPG","","","","","memory","false","state","true","","",""
"","null","html-keyboard-response","62","2.0.0","135238","pj9a1xup6od","dolphin","no","null","<div style=""font-size:60px; color:black;"">+</div>","","","","","","","","","","",""
"","null","image-keyboard-response","63","2.0.0","138242","pj9a1xup6od","dolphin","no","null","stimuli/organized/STATE/USED/Sbottles2.JPG","","","","","memory","false","state","true","","",""
"","null","html-keyboard-response","64","2.0.0","139245","pj9a1xup6od","dolphin","no","null","<div style=""font-size:60px; color:black;"">+</div>","","","","","","","","","","",""
"","null","image-keyboard-response","65","2.0.0","142249","pj9a1xup6od","dolphin","no","null","stimuli/organized/STATE/USED/Sdrum1.jpg","","","","","memory","false","state","true","","",""
"","null","html-keyboard-response","66","2.0.0","143252","pj9a1xup6od","dolphin","no","null","<div style=""font-size:60px; color:black;"">+</div>","","","","","","","","","","",""
"","null","image-keyboard-response","67","2.0.0","146256","pj9a1xup6od","dolphin","no","null","stimuli/organized/EXEMPLAR/USED/Ecalculator2.jpg","","","","","memory","false","exemplar","true","","",""
"","null","html-keyboard-response","68","2.0.0","147258","pj9a1xup6od","dolphin","no","null","<div style=""font-size:60px; color:black;"">+</div>","","","","","","","","","","",""
"","null","image-keyboard-response","69","2.0.0","150263","pj9a1xup6od","dolphin","no","null","stimuli/organized/EXEMPLAR/USED/Eframe2.jpg","","","","","memory","false","exemplar","true","","",""
"","null","html-keyboard-response","70","2.0.0","151266","pj9a1xup6od","dolphin","no","null","<div style=""font-size:60px; color:black;"">+</div>","","","","","","","","","","",""
"","null","image-keyboard-response","71","2.0.0","154269","pj9a1xup6od","dolphin","no","null","stimuli/organized/Novel pairs (tested)/n20bshelf.jpg","","","","","memory","false","novel","true","","",""
"","null","html-keyboard-response","72","2.0.0","155272","pj9a1xup6od","dolphin","no","null","<div style=""font-size:60px; color:black;"">+</div>","","","","","","","","","","",""
"","null","image-keyboard-response","73","2.0.0","158276","pj9a1xup6od","dolphin","no","null","stimuli/organized/STATE/USED/Sbureau2.JPG","","","","","memory","false","state","true","","",""
"","null","html-keyboard-response","74","2.0.0","159278","pj9a1xup6od","dolphin","no","null","<div style=""font-size:60px; color:black;"">+</div>","","","","","","","","","","",""
"","null","image-keyboard-response","75","2.0.0","162282","pj9a1xup6od","dolphin","no","null","stimuli/organized/Novel pairs (tested)/n10awindmill.jpg","","","","","memory","false","novel","true","","",""
"","null","html-keyboard-response","76","2.0.0","163285","pj9a1xup6od","dolphin","no","null","<div style=""font-size:60px; color:black;"">+</div>","","","","","","","","","","",""
"","null","image-keyboard-response","77","2.0.0","166288","pj9a1xup6od","dolphin","no","null","stimuli/organized/STATE/USED/Sfiretrucktoy1.jpg","","","","","memory","false","state","true","","",""
"","null","html-keyboard-response","78","2.0.0","167292","pj9a1xup6od","dolphin","no","null","<div style=""font-size:60px; color:black;"">+</div>","","","","","","","","","","",""
"","null","image-keyboard-response","79","2.0.0","170295","pj9a1xup6od","dolphin","no","null","stimuli/organized/EXEMPLAR/USED/Ecar1.jpg","","","","","memory","false","exemplar","true","","",""
"","null","html-keyboard-response","80","2.0.0","171299","pj9a1xup6od","dolphin","no","null","<div style=""font-size:60px; color:black;"">+</div>","","","","","","","","","","",""
"","933","image-keyboard-response","81","2.0.0","174302","pj9a1xup6od","dolphin","no"," ","stimuli/organized/STATE/USED/Sdresser2.jpg","","","","","memory","true","state","true","","",""
"","null","html-keyboard-response","82","2.0.0","175305","pj9a1xup6od","dolphin","no","null","<div style=""font-size:60px; color:green;"">+</div>","","","","","","","","","","",""
"","null","image-keyboard-response","83","2.0.0","178309","pj9a1xup6od","dolphin","no","null","stimuli/organized/Novel pairs (tested)/n04ayarn.jpg","","","","","memory","false","novel","true","","",""
"","null","html-keyboard-response","84","2.0.0","179313","pj9a1xup6od","dolphin","no","null","<div style=""font-size:60px; color:black;"">+</div>","","","","","","","","","","",""
"","null","image-keyboard-response","85","2.0.0","182316","pj9a1xup6od","dolphin","no","null","stimuli/organized/STATE/USED/Sdryer2.jpg","","","","","memory","false","state","true","","",""
"","null","html-keyboard-response","86","2.0.0","183319","pj9a1xup6od","dolphin","no","null","<div style=""font-size:60px; color:black;"">+</div>","","","","","","","","","","",""
"","null","image-keyboard-response","87","2.0.0","186323","pj9a1xup6od","dolphin","no","null","stimuli/organized/Novel pairs (tested)/n02bsafetypin.jpg","","","","","memory","false","novel","true","","",""
"","null","html-keyboard-response","88","2.0.0","187326","pj9a1xup6od","dolphin","no","null","<div style=""font-size:60px; color:black;"">+</div>","","","","","","","","","","",""
"","null","image-keyboard-response","89","2.0.0","190330","pj9a1xup6od","dolphin","no","null","stimuli/organized/Novel pairs (tested)/n14acigarette.jpg","","","","","memory","false","novel","true","","",""
"","null","html-keyboard-response","90","2.0.0","191333","pj9a1xup6od","dolphin","no","null","<div style=""font-size:60px; color:black;"">+</div>","","","","","","","","","","",""
"","null","image-keyboard-response","91","2.0.0","194337","pj9a1xup6od","dolphin","no","null","stimuli/organized/Novel pairs (tested)/n03acamel.jpg","","","","","memory","false","novel","true","","",""
"","null","html-keyboard-response","92","2.0.0","195340","pj9a1xup6od","dolphin","no","null","<div style=""font-size:60px; color:black;"">+</div>","","","","","","","","","","",""
"","null","image-keyboard-response","93","2.0.0","198343","pj9a1xup6od","dolphin","no","null","stimuli/organized/Novel pairs (tested)/n05abarrel.jpg","","","","","memory","false","novel","true","","",""
"","null","html-keyboard-response","94","2.0.0","199346","pj9a1xup6od","dolphin","no","null","<div style=""font-size:60px; color:black;"">+</div>","","","","","","","","","","",""
"","null","image-keyboard-response","95","2.0.0","202350","pj9a1xup6od","dolphin","no","null","stimuli/organized/Novel pairs (tested)/n08aoven.jpg","","","","","memory","false","novel","true","","",""
"","null","html-keyboard-response","96","2.0.0","203353","pj9a1xup6od","dolphin","no","null","<div style=""font-size:60px; color:black;"">+</div>","","","","","","","","","","",""
"","null","image-keyboard-response","97","2.0.0","206357","pj9a1xup6od","dolphin","no","null","stimuli/organized/Novel pairs (tested)/n16bhammer.jpg","","","","","memory","false","novel","true","","",""
"","null","html-keyboard-response","98","2.0.0","207360","pj9a1xup6od","dolphin","no","null","<div style=""font-size:60px; color:black;"">+</div>","","","","","","","","","","",""
"","null","image-keyboard-response","99","2.0.0","210364","pj9a1xup6od","dolphin","no","null","stimuli/organized/STATE/USED/Schinesefoodbox1.jpg","","","","","memory","false","state","true","","",""
"","null","html-keyboard-response","100","2.0.0","211367","pj9a1xup6od","dolphin","no","null","<div style=""font-size:60px; color:black;"">+</div>","","","","","","","","","","",""
"","null","image-keyboard-response","101","2.0.0","214370","pj9a1xup6od","dolphin","no","null","stimuli/organized/Novel pairs (tested)/n17bweddingdress.jpg","","","","","memory","false","novel","true","","",""
"","null","html-keyboard-response","102","2.0.0","215373","pj9a1xup6od","dolphin","no","null","<div style=""font-size:60px; color:black;"">+</div>","","","","","","","","","","",""
"","null","image-keyboard-response","103","2.0.0","218376","pj9a1xup6od","dolphin","no","null","stimuli/organized/STATE/USED/Sdonut1.jpg","","","","","memory","false","state","true","","",""
"","null","html-keyboard-response","104","2.0.0","219379","pj9a1xup6od","dolphin","no","null","<div style=""font-size:60px; color:black;"">+</div>","","","","","","","","","","",""
"","null","image-keyboard-response","105","2.0.0","222383","pj9a1xup6od","dolphin","no","null","stimuli/organized/EXEMPLAR/USED/Econe1.jpg","","","","","memory","false","exemplar","true","","",""
"","null","html-keyboard-response","106","2.0.0","223387","pj9a1xup6od","dolphin","no","null","<div style=""font-size:60px; color:black;"">+</div>","","","","","","","","","","",""
"","null","image-keyboard-response","107","2.0.0","226391","pj9a1xup6od","dolphin","no","null","stimuli/organized/STATE/USED/Sscissors1.JPG","","","","","memory","false","state","true","","",""
"","null","html-keyboard-response","108","2.0.0","227394","pj9a1xup6od","dolphin","no","null","<div style=""font-size:60px; color:black;"">+</div>","","","","","","","","","","",""
"","null","image-keyboard-response","109","2.0.0","230398","pj9a1xup6od","dolphin","no","null","stimuli/organized/STATE/USED/Shairbrush2.jpg","","","","","memory","false","state","true","","",""
"","null","html-keyboard-response","110","2.0.0","231401","pj9a1xup6od","dolphin","no","null","<div style=""font-size:60px; color:black;"">+</div>","","","","","","","","","","",""
"","null","image-keyboard-response","111","2.0.0","234404","pj9a1xup6od","dolphin","no","null","stimuli/organized/Novel pairs (tested)/n19apickle.jpg","","","","","memory","false","novel","true","","",""
"","null","html-keyboard-response","112","2.0.0","235408","pj9a1xup6od","dolphin","no","null","<div style=""font-size:60px; color:black;"">+</div>","","","","","","","","","","",""
"","null","image-keyboard-response","113","2.0.0","238411","pj9a1xup6od","dolphin","no","null","stimuli/organized/STATE/USED/Sbriefcase2.jpg","","","","","memory","false","state","true","","",""
"","null","html-keyboard-response","114","2.0.0","239414","pj9a1xup6od","dolphin","no","null","<div style=""font-size:60px; color:black;"">+</div>","","","","","","","","","","",""
"","null","image-keyboard-response","115","2.0.0","242417","pj9a1xup6od","dolphin","no","null","stimuli/organized/STATE/USED/Seggs1.jpg","","","","","memory","false","state","true","","",""
"","null","html-keyboard-response","116","2.0.0","243421","pj9a1xup6od","dolphin","no","null","<div style=""font-size:60px; color:black;"">+</div>","","","","","","","","","","",""
"","null","image-keyboard-response","117","2.0.0","246424","pj9a1xup6od","dolphin","no","null","stimuli/organized/STATE/USED/Sbox1.jpg","","","","","memory","false","state","true","","",""
"","null","html-keyboard-response","118","2.0.0","247428","pj9a1xup6od","dolphin","no","null","<div style=""font-size:60px; color:black;"">+</div>","","","","","","","","","","",""
"","null","image-keyboard-response","119","2.0.0","250431","pj9a1xup6od","dolphin","no","null","stimuli/organized/Novel pairs (tested)/n15bfootball.jpg","","","","","memory","false","novel","true","","",""
"","null","html-keyboard-response","120","2.0.0","251435","pj9a1xup6od","dolphin","no","null","<div style=""font-size:60px; color:black;"">+</div>","","","","","","","","","","",""
"","null","image-keyboard-response","121","2.0.0","254439","pj9a1xup6od","dolphin","no","null","stimuli/organized/STATE/USED/Sgiftbox2.jpg","","","","","memory","false","state","true","","",""
"","null","html-keyboard-response","122","2.0.0","255441","pj9a1xup6od","dolphin","no","null","<div style=""font-size:60px; color:black;"">+</div>","","","","","","","","","","",""
"","null","image-keyboard-response","123","2.0.0","258446","pj9a1xup6od","dolphin","no","null","stimuli/organized/EXEMPLAR/USED/Echisel1.jpg","","","","","memory","false","exemplar","true","","",""
"","null","html-keyboard-response","124","2.0.0","259448","pj9a1xup6od","dolphin","no","null","<div style=""font-size:60px; color:black;"">+</div>","","","","","","","","","","",""
"","null","image-keyboard-response","125","2.0.0","262451","pj9a1xup6od","dolphin","no","null","stimuli/organized/Novel pairs (tested)/n07apotato.jpg","","","","","memory","false","novel","true","","",""
"","null","html-keyboard-response","126","2.0.0","263454","pj9a1xup6od","dolphin","no","null","<div style=""font-size:60px; color:black;"">+</div>","","","","","","","","","","",""
"","null","image-keyboard-response","127","2.0.0","266458","pj9a1xup6od","dolphin","no","null","stimuli/organized/EXEMPLAR/USED/Ebread2.jpg","","","","","memory","false","exemplar","true","","",""
"","null","html-keyboard-response","128","2.0.0","267462","pj9a1xup6od","dolphin","no","null","<div style=""font-size:60px; color:black;"">+</div>","","","","","","","","","","",""
"","null","image-keyboard-response","129","2.0.0","270466","pj9a1xup6od","dolphin","no","null","stimuli/organized/Novel pairs (tested)/n09apenguin.jpg","","","","","memory","false","novel","true","","",""
"","null","html-keyboard-response","130","2.0.0","271469","pj9a1xup6od","dolphin","no","null","<div style=""font-size:60px; color:black;"">+</div>","","","","","","","","","","",""
"","null","image-keyboard-response","131","2.0.0","274473","pj9a1xup6od","dolphin","no","null","stimuli/organized/Novel pairs (tested)/n18apretzel.jpg","","","","","memory","false","novel","true","","",""
"","null","html-keyboard-response","132","2.0.0","275476","pj9a1xup6od","dolphin","no","null","<div style=""font-size:60px; color:black;"">+</div>","","","","","","","","","","",""
"","null","image-keyboard-response","133","2.0.0","278481","pj9a1xup6od","dolphin","no","null","stimuli/organized/Novel pairs (tested)/n06blipstick.jpg","","","","","memory","false","novel","true","","",""
"","null","html-keyboard-response","134","2.0.0","279484","pj9a1xup6od","dolphin","no","null","<div style=""font-size:60px; color:black;"">+</div>","","","","","","","","","","",""
"","null","image-keyboard-response","135","2.0.0","282487","pj9a1xup6od","dolphin","no","null","stimuli/organized/STATE/USED/Scoffeemaker1.JPG","","","","","memory","false","state","true","","",""
"","null","html-keyboard-response","136","2.0.0","283490","pj9a1xup6od","dolphin","no","null","<div style=""font-size:60px; color:black;"">+</div>","","","","","","","","","","",""
"","null","image-keyboard-response","137","2.0.0","286494","pj9a1xup6od","dolphin","no","null","stimuli/organized/EXEMPLAR/USED/Egoggles1.jpg","","","","","memory","false","exemplar","true","","",""
"","null","html-keyboard-response","138","2.0.0","287497","pj9a1xup6od","dolphin","no","null","<div style=""font-size:60px; color:black;"">+</div>","","","","","","","","","","",""
"","null","image-keyboard-response","139","2.0.0","290501","pj9a1xup6od","dolphin","no","null","stimuli/organized/STATE/USED/Sphone2.JPG","","","","","memory","false","state","true","","",""
"","null","html-keyboard-response","140","2.0.0","291504","pj9a1xup6od","dolphin","no","null","<div style=""font-size:60px; color:black;"">+</div>","","","","","","","","","","",""
"","null","image-keyboard-response","141","2.0.0","294508","pj9a1xup6od","dolphin","no","null","stimuli/organized/EXEMPLAR/USED/Egame1.jpg","","","","","memory","false","exemplar","true","","",""
"","null","html-keyboard-response","142","2.0.0","295512","pj9a1xup6od","dolphin","no","null","<div style=""font-size:60px; color:black;"">+</div>","","","","","","","","","","",""
"","null","image-keyboard-response","143","2.0.0","298515","pj9a1xup6od","dolphin","no","null","stimuli/organized/STATE/USED/Sbreadbox2.JPG","","","","","memory","false","state","true","","",""
"","null","html-keyboard-response","144","2.0.0","299518","pj9a1xup6od","dolphin","no","null","<div style=""font-size:60px; color:black;"">+</div>","","","","","","","","","","",""
"","null","image-keyboard-response","145","2.0.0","302522","pj9a1xup6od","dolphin","no","null","stimuli/organized/STATE/USED/Scrayons1.jpg","","","","","memory","false","state","true","","",""
"","null","html-keyboard-response","146","2.0.0","303525","pj9a1xup6od","dolphin","no","null","<div style=""font-size:60px; color:black;"">+</div>","","","","","","","","","","",""
"","830","image-keyboard-response","147","2.0.0","306528","pj9a1xup6od","dolphin","no"," ","stimuli/organized/Novel pairs (tested)/n09apenguin.jpg","","","","","memory","true","novel","true","","",""
"","null","html-keyboard-response","148","2.0.0","307531","pj9a1xup6od","dolphin","no","null","<div style=""font-size:60px; color:green;"">+</div>","","","","","","","","","","",""
"","null","image-keyboard-response","149","2.0.0","310535","pj9a1xup6od","dolphin","no","null","stimuli/organized/STATE/USED/Scontainer1.JPG","","","","","memory","false","state","true","","",""
"","null","html-keyboard-response","150","2.0.0","311538","pj9a1xup6od","dolphin","no","null","<div style=""font-size:60px; color:black;"">+</div>","","","","","","","","","","",""
"","null","image-keyboard-response","151","2.0.0","314543","pj9a1xup6od","dolphin","no","null","stimuli/organized/EXEMPLAR/USED/Efeather2.jpg","","","","","memory","false","exemplar","true","","",""
"","null","html-keyboard-response","152","2.0.0","315546","pj9a1xup6od","dolphin","no","null","<div style=""font-size:60px; color:black;"">+</div>","","","","","","","","","","",""
"","null","image-keyboard-response","153","2.0.0","318550","pj9a1xup6od","dolphin","no","null","stimuli/organized/EXEMPLAR/USED/Ecamera1.jpg","","","","","memory","false","exemplar","true","","",""
"","null","html-keyboard-response","154","2.0.0","319553","pj9a1xup6od","dolphin","no","null","<div style=""font-size:60px; color:black;"">+</div>","","","","","","","","","","",""
"","null","image-keyboard-response","155","2.0.0","322557","pj9a1xup6od","dolphin","no","null","stimuli/organized/STATE/USED/Spotpan2.JPG","","","","","memory","false","state","true","","",""
"","null","html-keyboard-response","156","2.0.0","323559","pj9a1xup6od","dolphin","no","null","<div style=""font-size:60px; color:black;"">+</div>","","","","","","","","","","",""
"","838","image-keyboard-response","157","2.0.0","326562","pj9a1xup6od","dolphin","no"," ","stimuli/organized/STATE/USED/Sflask2.jpg","","","","","memory","true","state","true","","",""
"","null","html-keyboard-response","158","2.0.0","327565","pj9a1xup6od","dolphin","no","null","<div style=""font-size:60px; color:green;"">+</div>","","","","","","","","","","",""
"","702","image-keyboard-response","159","2.0.0","330569","pj9a1xup6od","dolphin","no"," ","stimuli/organized/Novel pairs (tested)/n19apickle.jpg","","","","","memory","true","novel","true","","",""
"","null","html-keyboard-response","160","2.0.0","331572","pj9a1xup6od","dolphin","no","null","<div style=""font-size:60px; color:green;"">+</div>","","","","","","","","","","",""
"","null","image-keyboard-response","161","2.0.0","334575","pj9a1xup6od","dolphin","no","null","stimuli/organized/STATE/USED/Sapplesgreenbasket2.jpg","","","","","memory","false","state","true","","",""
"","null","html-keyboard-response","162","2.0.0","335578","pj9a1xup6od","dolphin","no","null","<div style=""font-size:60px; color:black;"">+</div>","","","","","","","","","","",""
"","null","image-keyboard-response","163","2.0.0","338581","pj9a1xup6od","dolphin","no","null","stimuli/organized/STATE/USED/Sdishes1.JPG","","","","","memory","false","state","true","","",""
"","null","html-keyboard-response","164","2.0.0","339584","pj9a1xup6od","dolphin","no","null","<div style=""font-size:60px; color:black;"">+</div>","","","","","","","","","","",""
"","796","image-keyboard-response","165","2.0.0","342588","pj9a1xup6od","dolphin","no"," ","stimuli/organized/STATE/USED/Scontainer1.JPG","","","","","memory","true","state","true","","",""
"","5977","html-button-response","166","2.0.0","348567","pj9a1xup6od","dolphin","no","0","<p>You have completed the study phase.</p><p>Take a short break. Press the button below when you are ready to continue.</p>","","","","","","","","","","",""
"","7030","html-keyboard-response","167","2.0.0","355598","pj9a1xup6od","dolphin","no"," ","<p>You will now be shown pairs of images.</p><p>Select the image you remember seeing during the study phase.</p><p>Focus on accuracy, not speed.</p><p>Press any key to begin.</p>","","","","","","","","","","",""
"","1401","html-button-response","168","2.0.0","357000","pj9a1xup6od","dolphin","no","0","Which of these items did you see earlier?","","","","","test","","novel","true","stimuli/organized/Novel pairs (tested)/n20bshelf.jpg","stimuli/organized/Novel pairs (tested)/n20acarseat.jpg","0"
"","1380","html-button-response","169","2.0.0","358383","pj9a1xup6od","dolphin","no","1","Which of these items did you see earlier?","","","","","test","","novel","true","stimuli/organized/Novel pairs (tested)/n07apotato.jpg","stimuli/organized/Novel pairs (tested)/n07bswimmingpool.jpg","1"
"","1181","html-button-response","170","2.0.0","359565","pj9a1xup6od","dolphin","no","0","Which of these items did you see earlier?","","","","","test","","novel","true","stimuli/organized/Novel pairs (tested)/n15bfootball.jpg","stimuli/organized/Novel pairs (tested)/n15aspiderweb.jpg","0"
"","1448","html-button-response","171","2.0.0","361016","pj9a1xup6od","dolphin","no","1","Which of these items did you see earlier?","","","","","test","","state","true","stimuli/organized/STATE/USED/Sapplesgreenbasket2.jpg","stimuli/organized/STATE/USED/Sapplesgreenbasket1.jpg","1"
"","1416","html-button-response","172","2.0.0","362434","pj9a1xup6od","dolphin","no","1","Which of these items did you see earlier?","","","","","test","","exemplar","true","stimuli/organized/EXEMPLAR/USED/Eframe2.jpg","stimuli/organized/EXEMPLAR/USED/Eframe1.jpg","1"
"","1429","html-button-response","173","2.0.0","363865","pj9a1xup6od","dolphin","no","0","Which of these items did you see earlier?","","","","","test","","novel","true","stimuli/organized/Novel pairs (tested)/n10awindmill.jpg","stimuli/organized/Novel pairs (tested)/n10bturkey.jpg","0"
"","1649","html-button-response","174","2.0.0","365516","pj9a1xup6od","dolphin","no","0","Which of these items did you see earlier?","","","","","test","","novel","true","stimuli/organized/Novel pairs (tested)/n09apenguin.jpg","stimuli/organized/Novel pairs (tested)/n09bsaddle.jpg","0"
"","1798","html-button-response","175","2.0.0","367315","pj9a1xup6od","dolphin","no","1","Which of these items did you see earlier?","","","","","test","","exemplar","true","stimuli/organized/EXEMPLAR/USED/Ebell1.jpg","stimuli/organized/EXEMPLAR/USED/Ebell2.jpg","1"
"","2066","html-button-response","176","2.0.0","369383","pj9a1xup6od","dolphin","no","1","Which of these items did you see earlier?","","","","","test","","exemplar","true","stimuli/organized/EXEMPLAR/USED/Econe1.jpg","stimuli/organized/EXEMPLAR/USED/Econe2.jpg","1"
"","1631","html-button-response","177","2.0.0","371016","pj9a1xup6od","dolphin","no","1","Which of these items did you see earlier?","","","","","test","","novel","true","stimuli/organized/Novel pairs (tested)/n18apretzel.jpg","stimuli/organized/Novel pairs (tested)/n18bsnail.jpg","1"
"","1416","html-button-response","178","2.0.0","372434","pj9a1xup6od","dolphin","no","1","Which of these items did you see earlier?","","","","","test","","state","true","stimuli/organized/STATE/USED/Sdryer2.jpg","stimuli/organized/STATE/USED/Sdryer1.jpg","1"
"","1432","html-button-response","179","2.0.0","373867","pj9a1xup6od","dolphin","no","0","Which of these items did you see earlier?","","","","","test","","state","true","stimuli/organized/STATE/USED/Sbox1.jpg","stimuli/organized/STATE/USED/Sbox2.jpg","0"
"","5148","html-button-response","180","2.0.0","379017","pj9a1xup6od","dolphin","no","1","Which of these items did you see earlier?","","","","","test","","state","true","stimuli/organized/STATE/USED/Sdie2.jpg","stimuli/organized/STATE/USED/Sdie1.jpg","1"
"","1630","html-button-response","181","2.0.0","380649","pj9a1xup6od","dolphin","no","0","Which of these items did you see earlier?","","","","","test","","state","true","stimuli/organized/STATE/USED/Sdonut1.jpg","stimuli/organized/STATE/USED/Sdonut2.jpg","0"
"","1414","html-button-response","182","2.0.0","382065","pj9a1xup6od","dolphin","no","1","Which of these items did you see earlier?","","","","","test","","exemplar","true","stimuli/organized/EXEMPLAR/USED/Ecalculator2.jpg","stimuli/organized/EXEMPLAR/USED/Ecalculator1.jpg","1"
"","1399","html-button-response","183","2.0.0","383466","pj9a1xup6od","dolphin","no","1","Which of these items did you see earlier?","","","","","test","","novel","true","stimuli/organized/Novel pairs (tested)/n05abarrel.jpg","stimuli/organized/Novel pairs (tested)/n05bcactus.jpg","1"
"","1264","html-button-response","184","2.0.0","384733","pj9a1xup6od","dolphin","no","1","Which of these items did you see earlier?","","","","","test","","novel","true","stimuli/organized/Novel pairs (tested)/n01aladybug.jpg","stimuli/organized/Novel pairs (tested)/n01bcoin.jpg","1"
"","1616","html-button-response","185","2.0.0","386351","pj9a1xup6od","dolphin","no","1","Which of these items did you see earlier?","","","","","test","","novel","true","stimuli/organized/Novel pairs (tested)/n13bdustpan.jpg","stimuli/organized/Novel pairs (tested)/n13ablueberries.jpg","1"
"","1063","html-button-response","186","2.0.0","387416","pj9a1xup6od","dolphin","no","1","Which of these items did you see earlier?","","","","","test","","novel","true","stimuli/organized/Novel pairs (tested)/n04ayarn.jpg","stimuli/organized/Novel pairs (tested)/n04bbandaid.jpg","1"
"","1815","html-button-response","187","2.0.0","389233","pj9a1xup6od","dolphin","no","0","Which of these items did you see earlier?","","","","","test","","exemplar","true","stimuli/organized/EXEMPLAR/USED/Echisel1.jpg","stimuli/organized/EXEMPLAR/USED/Echisel2.jpg","0"
"","1063","html-button-response","188","2.0.0","390298","pj9a1xup6od","dolphin","no","0","Which of these items did you see earlier?","","","","","test","","novel","true","stimuli/organized/Novel pairs (tested)/n19apickle.jpg","stimuli/organized/Novel pairs (tested)/n19bhairbrush.jpg","0"
"","1500","html-button-response","189","2.0.0","391800","pj9a1xup6od","dolphin","no","1","Which of these items did you see earlier?","","","","","test","","exemplar","true","stimuli/organized/EXEMPLAR/USED/Ebicycle1.jpg","stimuli/organized/EXEMPLAR/USED/Ebicycle2.jpg","1"
"","3364","html-button-response","190","2.0.0","395166","pj9a1xup6od","dolphin","no","0","Which of these items did you see earlier?","","","","","test","","exemplar","true","stimuli/organized/EXEMPLAR/USED/Ecabinet2.jpg","stimuli/organized/EXEMPLAR/USED/Ecabinet1.jpg","0"
"","1731","html-button-response","191","2.0.0","396899","pj9a1xup6od","dolphin","no","1","Which of these items did you see earlier?","","","","","test","","state","true","stimuli/organized/STATE/USED/Sbottles2.JPG","stimuli/organized/STATE/USED/Sbottles1.JPG","1"
"","1615","html-button-response","192","2.0.0","398516","pj9a1xup6od","dolphin","no","1","Which of these items did you see earlier?","","","","","test","","exemplar","true","stimuli/organized/EXEMPLAR/USED/Efeather2.jpg","stimuli/organized/EXEMPLAR/USED/Efeather1.jpg","1"
"","2764","html-button-response","193","2.0.0","401282","pj9a1xup6od","dolphin","no","0","Which of these items did you see earlier?","","","","","test","","state","true","stimuli/organized/STATE/USED/Sbabytoy1.JPG","stimuli/organized/STATE/USED/Sbabytoy2.JPG","0"
"","1098","html-button-response","194","2.0.0","402381","pj9a1xup6od","dolphin","no","0","Which of these items did you see earlier?","","","","","test","","novel","true","stimuli/organized/Novel pairs (tested)/n06blipstick.jpg","stimuli/organized/Novel pairs (tested)/n06acane.jpg","0"
"","1333","html-button-response","195","2.0.0","403715","pj9a1xup6od","dolphin","no","0","Which of these items did you see earlier?","","","","","test","","exemplar","true","stimuli/organized/EXEMPLAR/USED/Egrapes1.jpg","stimuli/organized/EXEMPLAR/USED/Egrapes2.jpg","0"
"","1332","html-button-response","196","2.0.0","405049","pj9a1xup6od","dolphin","no","1","Which of these items did you see earlier?","","","","","test","","exemplar","true","stimuli/organized/EXEMPLAR/USED/Edispenser2.jpg","stimuli/organized/EXEMPLAR/USED/Edispenser1.jpg","1"
"","1565","html-button-response","197","2.0.0","406616","pj9a1xup6od","dolphin","no","0","Which of these items did you see earlier?","","","","","test","","novel","true","stimuli/organized/Novel pairs (tested)/n03acamel.jpg","stimuli/organized/Novel pairs (tested)/n03bbagel.jpg","0"
"","3114","html-button-response","198","2.0.0","409732","pj9a1xup6od","dolphin","no","0","Which of these items did you see earlier?","","","","","test","","state","true","stimuli/organized/STATE/USED/Sfiretrucktoy1.jpg","stimuli/organized/STATE/USED/Sfiretrucktoy2.jpg","0"
"","1514","html-button-response","199","2.0.0","411249","pj9a1xup6od","dolphin","no","0","Which of these items did you see earlier?","","","","","test","","state","true","stimuli/organized/STATE/USED/Sabacus2.jpg","stimuli/organized/STATE/USED/Sabacus1.jpg","0"
"","1865","html-button-response","200","2.0.0","413115","pj9a1xup6od","dolphin","no","0","Which of these items did you see earlier?","","","","","test","","state","true","stimuli/organized/STATE/USED/Scookies1.JPG","stimuli/organized/STATE/USED/Scookies2.JPG","0"
"","2283","html-button-response","201","2.0.0","415400","pj9a1xup6od","dolphin","no","0","Which of these items did you see earlier?","","","","","test","","state","true","stimuli/organized/STATE/USED/Seggs1.jpg","stimuli/organized/STATE/USED/Seggs2.jpg","0"
"","1482","html-button-response","202","2.0.0","416884","pj9a1xup6od","dolphin","no","1","Which of these items did you see earlier?","","","","","test","","state","true","stimuli/organized/STATE/USED/Sdresser2.jpg","stimuli/organized/STATE/USED/Sdresser1.jpg","1"
"","2563","html-button-response","203","2.0.0","419449","pj9a1xup6od","dolphin","no","0","Which of these items did you see earlier?","","","","","test","","exemplar","true","stimuli/organized/EXEMPLAR/USED/Egoggles1.jpg","stimuli/organized/EXEMPLAR/USED/Egoggles2.jpg","0"
"","1616","html-button-response","204","2.0.0","421067","pj9a1xup6od","dolphin","no","1","Which of these items did you see earlier?","","","","","test","","state","false","stimuli/organized/STATE/USED/Sscissors1.JPG","stimuli/organized/STATE/USED/Sscissors2.JPG","0"
"","1097","html-button-response","205","2.0.0","422165","pj9a1xup6od","dolphin","no","1","Which of these items did you see earlier?","","","","","test","","state","true","stimuli/organized/STATE/USED/Sflask2.jpg","stimuli/organized/STATE/USED/Sflask1.jpg","1"
"","1099","html-button-response","206","2.0.0","423266","pj9a1xup6od","dolphin","no","0","Which of these items did you see earlier?","","","","","test","","novel","true","stimuli/organized/Novel pairs (tested)/n11bsock.jpg","stimuli/organized/Novel pairs (tested)/n11abatteries.jpg","0"
"","3648","html-button-response","207","2.0.0","426916","pj9a1xup6od","dolphin","no","0","Which of these items did you see earlier?","","","","","test","","state","false","stimuli/organized/STATE/USED/Sgiftbag1.jpg","stimuli/organized/STATE/USED/Sgiftbag2.jpg","1"
"","1299","html-button-response","208","2.0.0","428216","pj9a1xup6od","dolphin","no","0","Which of these items did you see earlier?","","","","","test","","novel","true","stimuli/organized/Novel pairs (tested)/n16bhammer.jpg","stimuli/organized/Novel pairs (tested)/n16abananas.jpg","0"
"","2147","html-button-response","209","2.0.0","430365","pj9a1xup6od","dolphin","no","0","Which of these items did you see earlier?","","","","","test","","state","true","stimuli/organized/STATE/USED/Sbreadbox2.JPG","stimuli/organized/STATE/USED/Sbreadbox1.JPG","0"
"","1581","html-button-response","210","2.0.0","431949","pj9a1xup6od","dolphin","no","1","Which of these items did you see earlier?","","","","","test","","state","true","stimuli/organized/STATE/USED/Sbelt2.jpg","stimuli/organized/STATE/USED/Sbelt1.jpg","1"
"","1231","html-button-response","211","2.0.0","433182","pj9a1xup6od","dolphin","no","1","Which of these items did you see earlier?","","","","","test","","state","true","stimuli/organized/STATE/USED/Spie2.JPG","stimuli/organized/STATE/USED/Spie1.JPG","1"
"","4065","html-button-response","212","2.0.0","437249","pj9a1xup6od","dolphin","no","0","Which of these items did you see earlier?","","","","","test","","exemplar","true","stimuli/organized/EXEMPLAR/USED/Eglobe2.jpg","stimuli/organized/EXEMPLAR/USED/Eglobe1.jpg","0"
"","1197","html-button-response","213","2.0.0","438447","pj9a1xup6od","dolphin","no","0","Which of these items did you see earlier?","","","","","test","","state","true","stimuli/organized/STATE/USED/Schinesefoodbox1.jpg","stimuli/organized/STATE/USED/Schinesefoodbox2.jpg","0"
"","1401","html-button-response","214","2.0.0","439849","pj9a1xup6od","dolphin","no","1","Which of these items did you see earlier?","","","","","test","","exemplar","true","stimuli/organized/EXEMPLAR/USED/Ebasket1.jpg","stimuli/organized/EXEMPLAR/USED/Ebasket2.jpg","1"
"","1780","html-button-response","215","2.0.0","441631","pj9a1xup6od","dolphin","no","1","Which of these items did you see earlier?","","","","","test","","state","true","stimuli/organized/STATE/USED/Scoffeemaker1.JPG","stimuli/organized/STATE/USED/Scoffeemaker2.JPG","1"
"","1717","html-button-response","216","2.0.0","443350","pj9a1xup6od","dolphin","no","0","Which of these items did you see earlier?","","","","","test","","exemplar","true","stimuli/organized/EXEMPLAR/USED/Ebread2.jpg","stimuli/organized/EXEMPLAR/USED/Ebread1.jpg","0"
"","1499","html-button-response","217","2.0.0","444850","pj9a1xup6od","dolphin","no","1","Which of these items did you see earlier?","","","","","test","","novel","true","stimuli/organized/Novel pairs (tested)/n02bsafetypin.jpg","stimuli/organized/Novel pairs (tested)/n02aaxe.jpg","1"
"","1080","html-button-response","218","2.0.0","445933","pj9a1xup6od","dolphin","no","1","Which of these items did you see earlier?","","","","","test","","exemplar","true","stimuli/organized/EXEMPLAR/USED/Efan1.jpg","stimuli/organized/EXEMPLAR/USED/Efan2.jpg","1"
"","1447","html-button-response","219","2.0.0","447382","pj9a1xup6od","dolphin","no","1","Which of these items did you see earlier?","","","","","test","","state","true","stimuli/organized/STATE/USED/Sbureau2.JPG","stimuli/organized/STATE/USED/Sbureau1.JPG","1"
"","3449","html-button-response","220","2.0.0","450833","pj9a1xup6od","dolphin","no","0","Which of these items did you see earlier?","","","","","test","","state","true","stimuli/organized/STATE/USED/Sdishes1.JPG","stimuli/organized/STATE/USED/Sdishes2.JPG","0"
"","1044","html-button-response","221","2.0.0","451879","pj9a1xup6od","dolphin","no","0","Which of these items did you see earlier?","","","","","test","","state","true","stimuli/organized/STATE/USED/Sjuiceglass2.JPG","stimuli/organized/STATE/USED/Sjuiceglass1.JPG","0"
"","3869","html-button-response","222","2.0.0","455750","pj9a1xup6od","dolphin","no","1","Which of these items did you see earlier?","","","","","test","","state","true","stimuli/organized/STATE/USED/Slaptop2.JPG","stimuli/organized/STATE/USED/Slaptop1.JPG","1"
"","3247","html-button-response","223","2.0.0","458999","pj9a1xup6od","dolphin","no","0","Which of these items did you see earlier?","","","","","test","","state","true","stimuli/organized/STATE/USED/Sgiftbox2.jpg","stimuli/organized/STATE/USED/Sgiftbox1.jpg","0"
"","2298","html-button-response","224","2.0.0","461299","pj9a1xup6od","dolphin","no","0","Which of these items did you see earlier?","","","","","test","","state","true","stimuli/organized/STATE/USED/Scontainer1.JPG","stimuli/organized/STATE/USED/Scontainer2.JPG","0"
"","1015","html-button-response","225","2.0.0","462316","pj9a1xup6od","dolphin","no","0","Which of these items did you see earlier?","","","","","test","","exemplar","true","stimuli/organized/EXEMPLAR/USED/Echocolatebar2.jpg","stimuli/organized/EXEMPLAR/USED/Echocolatebar1.jpg","0"
"","2164","html-button-response","226","2.0.0","464482","pj9a1xup6od","dolphin","no","0","Which of these items did you see earlier?","","","","","test","","state","true","stimuli/organized/STATE/USED/Sbriefcase2.jpg","stimuli/organized/STATE/USED/Sbriefcase1.jpg","0"
"","1664","html-button-response","227","2.0.0","466148","pj9a1xup6od","dolphin","no","1","Which of these items did you see earlier?","","","","","test","","exemplar","true","stimuli/organized/EXEMPLAR/USED/Egame1.jpg","stimuli/organized/EXEMPLAR/USED/Egame2.jpg","1"
"","1565","html-button-response","228","2.0.0","467716","pj9a1xup6od","dolphin","no","0","Which of these items did you see earlier?","","","","","test","","state","true","stimuli/organized/STATE/USED/Spotpan2.JPG","stimuli/organized/STATE/USED/Spotpan1.JPG","0"
"","9831","html-button-response","229","2.0.0","477549","pj9a1xup6od","dolphin","no","1","Which of these items did you see earlier?","","","","","test","","novel","true","stimuli/organized/Novel pairs (tested)/n17bweddingdress.jpg","stimuli/organized/Novel pairs (tested)/n17avendingmachine.jpg","1"
"","4565","html-button-response","230","2.0.0","482115","pj9a1xup6od","dolphin","no","1","Which of these items did you see earlier?","","","","","test","","state","false","stimuli/organized/STATE/USED/Scrayons1.jpg","stimuli/organized/STATE/USED/Scrayons2.jpg","0"
"","1251","html-button-response","231","2.0.0","483368","pj9a1xup6od","dolphin","no","0","Which of these items did you see earlier?","","","","","test","","state","true","stimuli/organized/STATE/USED/Sbooks2.JPG","stimuli/organized/STATE/USED/Sbooks1.JPG","0"
"","1345","html-button-response","232","2.0.0","484715","pj9a1xup6od","dolphin","no","1","Which of these items did you see earlier?","","","","","test","","state","true","stimuli/organized/STATE/USED/Sscanner1.JPG","stimuli/organized/STATE/USED/Sscanner2.JPG","1"
"","2565","html-button-response","233","2.0.0","487282","pj9a1xup6od","dolphin","no","0","Which of these items did you see earlier?","","","","","test","","state","true","stimuli/organized/STATE/USED/Sphone2.JPG","stimuli/organized/STATE/USED/Sphone1.JPG","0"
"","1815","html-button-response","234","2.0.0","489099","pj9a1xup6od","dolphin","no","0","Which of these items did you see earlier?","","","","","test","","state","true","stimuli/organized/STATE/USED/Sgrinder1.jpg","stimuli/organized/STATE/USED/Sgrinder2.jpg","0"
"","1314","html-button-response","235","2.0.0","490415","pj9a1xup6od","dolphin","no","1","Which of these items did you see earlier?","","","","","test","","novel","true","stimuli/organized/Novel pairs (tested)/n14acigarette.jpg","stimuli/organized/Novel pairs (tested)/n14bgolfball.jpg","1"
"","1516","html-button-response","236","2.0.0","491933","pj9a1xup6od","dolphin","no","1","Which of these items did you see earlier?","","","","","test","","state","true","stimuli/organized/STATE/USED/Sdrum1.jpg","stimuli/organized/STATE/USED/Sdrum2.jpg","1"
"","1247","html-button-response","237","2.0.0","493183","pj9a1xup6od","dolphin","no","1","Which of these items did you see earlier?","","","","","test","","novel","true","stimuli/organized/Novel pairs (tested)/n08aoven.jpg","stimuli/organized/Novel pairs (tested)/n08bpaperclip.jpg","1"
"","1298","html-button-response","238","2.0.0","494483","pj9a1xup6od","dolphin","no","1","Which of these items did you see earlier?","","","","","test","","exemplar","true","stimuli/organized/EXEMPLAR/USED/Ecar1.jpg","stimuli/organized/EXEMPLAR/USED/Ecar2.jpg","1"
"","1414","html-button-response","239","2.0.0","495899","pj9a1xup6od","dolphin","no","1","Which of these items did you see earlier?","","","","","test","","exemplar","true","stimuli/organized/EXEMPLAR/USED/Ecamera1.jpg","stimuli/organized/EXEMPLAR/USED/Ecamera2.jpg","1"
"","3065","html-button-response","240","2.0.0","498966","pj9a1xup6od","dolphin","no","1","Which of these items did you see earlier?","","","","","test","","state","true","stimuli/organized/STATE/USED/Sbrushes2.jpg","stimuli/organized/STATE/USED/Sbrushes1.jpg","1"
"","1947","html-button-response","241","2.0.0","500914","pj9a1xup6od","dolphin","no","0","Which of these items did you see earlier?","","","","","test","","state","true","stimuli/organized/STATE/USED/Shairbrush2.jpg","stimuli/organized/STATE/USED/Shairbrush1.jpg","0"
"","1434","html-button-response","242","2.0.0","502350","pj9a1xup6od","dolphin","no","1","Which of these items did you see earlier?","","","","","test","","exemplar","true","stimuli/organized/EXEMPLAR/USED/Ebracelet2.jpg","stimuli/organized/EXEMPLAR/USED/Ebracelet1.jpg","1"
"","1346","html-button-response","243","2.0.0","503698","pj9a1xup6od","dolphin","no","0","Which of these items did you see earlier?","","","","","test","","novel","true","stimuli/organized/Novel pairs (tested)/n12bwatch.jpg","stimuli/organized/Novel pairs (tested)/n12atelescope.jpg","0"
"","8114","survey-html-form","244","2.0.0","511816","pj9a1xup6od","dolphin","no","{""age"":""23"",""gender"":""female"",""memory_experiment_experience"":""no""}","","","","","","","","","","","",""
"","10547","survey-text","245","2.0.0","522366","pj9a1xup6od","dolphin","no","{""task_guess"":""memory recall""}","","","","","","","","","","","",""
"","2930","survey-text","246","2.0.0","525298","pj9a1xup6od","dolphin","no","{""technical_issues_question"":""no""}","","","","","","","","","","","",""
