"success","rt","trial_type","trial_index","plugin_version","time_elapsed","random_id","participant","technical_issues","response","stimulus","timeout","failed_images","failed_audio","failed_video","trial_phase","is_repeat","test_type","correct","old_image","new_image","correct_position"
"true","3807","fullscreen","0","null","4812","pja7qwucv41","panda","sometimes I had to press the spacebar multiple times for the first part of the memory test","","","","","","","","","","","","",""
"","2523","survey-text","1","2.0.0","7340","pja7qwucv41","panda","sometimes I had to press the spacebar multiple times for the first part of the memory test","{""participant_id"":""panda""}","","","","","","","","","","","",""
"","6333","html-keyboard-response","2","2.0.0","13674","pja7qwucv41","panda","sometimes I had to press the spacebar multiple times for the first part of the memory test"," ","
      <p>In this experiment, a series of objects will be displayed.</p>
      <p>Try to memorize as much as possible about the objects.</p>
      <p>If the image is a <strong> repeat</strong>, press the SPACEBAR.</p>
      <p>Press any key to begin.</p>
    ","","","","","","","","","","",""
"true","","preload","3","2.0.0","14413","pja7qwucv41","panda","sometimes I had to press the spacebar multiple times for the first part of the memory test","","","false","[]","[]","[]","","","","","","",""
"","null","html-keyboard-response","4","2.0.0","15414","pja7qwucv41","panda","sometimes I had to press the spacebar multiple times for the first part of the memory test","null","<div style=""font-size:60px;"">+</div>","","","","","","","","","","",""
"","null","image-keyboard-response","5","2.0.0","18421","pja7qwucv41","panda","sometimes I had to press the spacebar multiple times for the first part of the memory test","null","stimuli/organized/Novel pairs (tested)/n06acane.jpg","","","","","memory","false","novel","true","","",""
"","null","html-keyboard-response","6","2.0.0","19424","pja7qwucv41","panda","sometimes I had to press the spacebar multiple times for the first part of the memory test","null","<div style=""font-size:60px; color:black;"">+</div>","","","","","","","","","","",""
"","null","image-keyboard-response","7","2.0.0","22427","pja7qwucv41","panda","sometimes I had to press the spacebar multiple times for the first part of the memory test","null","stimuli/organized/STATE/USED/Sdonut2.jpg","","","","","memory","false","state","true","","",""
"","null","html-keyboard-response","8","2.0.0","23430","pja7qwucv41","panda","sometimes I had to press the spacebar multiple times for the first part of the memory test","null","<div style=""font-size:60px; color:black;"">+</div>","","","","","","","","","","",""
"","null","image-keyboard-response","9","2.0.0","26434","pja7qwucv41","panda","sometimes I had to press the spacebar multiple times for the first part of the memory test","null","stimuli/organized/STATE/USED/Sbreadbox1.JPG","","","","","memory","false","state","true","","",""
"","null","html-keyboard-response","10","2.0.0","27437","pja7qwucv41","panda","sometimes I had to press the spacebar multiple times for the first part of the memory test","null","<div style=""font-size:60px; color:black;"">+</div>","","","","","","","","","","",""
"","null","image-keyboard-response","11","2.0.0","30441","pja7qwucv41","panda","sometimes I had to press the spacebar multiple times for the first part of the memory test","null","stimuli/organized/STATE/USED/Scontainer1.JPG","","","","","memory","false","state","true","","",""
"","null","html-keyboard-response","12","2.0.0","31443","pja7qwucv41","panda","sometimes I had to press the spacebar multiple times for the first part of the memory test","null","<div style=""font-size:60px; color:black;"">+</div>","","","","","","","","","","",""
"","null","image-keyboard-response","13","2.0.0","34446","pja7qwucv41","panda","sometimes I had to press the spacebar multiple times for the first part of the memory test","null","stimuli/organized/EXEMPLAR/USED/Ebicycle2.jpg","","","","","memory","false","exemplar","true","","",""
"","null","html-keyboard-response","14","2.0.0","35449","pja7qwucv41","panda","sometimes I had to press the spacebar multiple times for the first part of the memory test","null","<div style=""font-size:60px; color:black;"">+</div>","","","","","","","","","","",""
"","null","image-keyboard-response","15","2.0.0","38453","pja7qwucv41","panda","sometimes I had to press the spacebar multiple times for the first part of the memory test","null","stimuli/organized/STATE/USED/Spie2.JPG","","","","","memory","false","state","true","","",""
"","null","html-keyboard-response","16","2.0.0","39456","pja7qwucv41","panda","sometimes I had to press the spacebar multiple times for the first part of the memory test","null","<div style=""font-size:60px; color:black;"">+</div>","","","","","","","","","","",""
"","null","image-keyboard-response","17","2.0.0","42459","pja7qwucv41","panda","sometimes I had to press the spacebar multiple times for the first part of the memory test","null","stimuli/organized/EXEMPLAR/USED/Efeather1.jpg","","","","","memory","false","exemplar","true","","",""
"","null","html-keyboard-response","18","2.0.0","43463","pja7qwucv41","panda","sometimes I had to press the spacebar multiple times for the first part of the memory test","null","<div style=""font-size:60px; color:black;"">+</div>","","","","","","","","","","",""
"","null","image-keyboard-response","19","2.0.0","46467","pja7qwucv41","panda","sometimes I had to press the spacebar multiple times for the first part of the memory test","null","stimuli/organized/STATE/USED/Scrayons2.jpg","","","","","memory","false","state","true","","",""
"","null","html-keyboard-response","20","2.0.0","47468","pja7qwucv41","panda","sometimes I had to press the spacebar multiple times for the first part of the memory test","null","<div style=""font-size:60px; color:black;"">+</div>","","","","","","","","","","",""
"","null","image-keyboard-response","21","2.0.0","50472","pja7qwucv41","panda","sometimes I had to press the spacebar multiple times for the first part of the memory test","null","stimuli/organized/EXEMPLAR/USED/Ecabinet2.jpg","","","","","memory","false","exemplar","true","","",""
"","null","html-keyboard-response","22","2.0.0","51475","pja7qwucv41","panda","sometimes I had to press the spacebar multiple times for the first part of the memory test","null","<div style=""font-size:60px; color:black;"">+</div>","","","","","","","","","","",""
"","null","image-keyboard-response","23","2.0.0","54479","pja7qwucv41","panda","sometimes I had to press the spacebar multiple times for the first part of the memory test","null","stimuli/organized/EXEMPLAR/USED/Egrapes1.jpg","","","","","memory","false","exemplar","true","","",""
"","null","html-keyboard-response","24","2.0.0","55482","pja7qwucv41","panda","sometimes I had to press the spacebar multiple times for the first part of the memory test","null","<div style=""font-size:60px; color:black;"">+</div>","","","","","","","","","","",""
"","null","image-keyboard-response","25","2.0.0","58486","pja7qwucv41","panda","sometimes I had to press the spacebar multiple times for the first part of the memory test","null","stimuli/organized/STATE/USED/Sgrinder1.jpg","","","","","memory","false","state","true","","",""
"","null","html-keyboard-response","26","2.0.0","59489","pja7qwucv41","panda","sometimes I had to press the spacebar multiple times for the first part of the memory test","null","<div style=""font-size:60px; color:black;"">+</div>","","","","","","","","","","",""
"","null","image-keyboard-response","27","2.0.0","62492","pja7qwucv41","panda","sometimes I had to press the spacebar multiple times for the first part of the memory test","null","stimuli/organized/Novel pairs (tested)/n18apretzel.jpg","","","","","memory","false","novel","true","","",""
"","null","html-keyboard-response","28","2.0.0","63495","pja7qwucv41","panda","sometimes I had to press the spacebar multiple times for the first part of the memory test","null","<div style=""font-size:60px; color:black;"">+</div>","","","","","","","","","","",""
"","null","image-keyboard-response","29","2.0.0","66498","pja7qwucv41","panda","sometimes I had to press the spacebar multiple times for the first part of the memory test","null","stimuli/organized/STATE/USED/Sbriefcase2.jpg","","","","","memory","false","state","true","","",""
"","null","html-keyboard-response","30","2.0.0","67501","pja7qwucv41","panda","sometimes I had to press the spacebar multiple times for the first part of the memory test","null","<div style=""font-size:60px; color:black;"">+</div>","","","","","","","","","","",""
"","null","image-keyboard-response","31","2.0.0","70504","pja7qwucv41","panda","sometimes I had to press the spacebar multiple times for the first part of the memory test","null","stimuli/organized/Novel pairs (tested)/n10awindmill.jpg","","","","","memory","false","novel","true","","",""
"","null","html-keyboard-response","32","2.0.0","71507","pja7qwucv41","panda","sometimes I had to press the spacebar multiple times for the first part of the memory test","null","<div style=""font-size:60px; color:black;"">+</div>","","","","","","","","","","",""
"","null","image-keyboard-response","33","2.0.0","74510","pja7qwucv41","panda","sometimes I had to press the spacebar multiple times for the first part of the memory test","null","stimuli/organized/STATE/USED/Sbox2.jpg","","","","","memory","false","state","true","","",""
"","null","html-keyboard-response","34","2.0.0","75513","pja7qwucv41","panda","sometimes I had to press the spacebar multiple times for the first part of the memory test","null","<div style=""font-size:60px; color:black;"">+</div>","","","","","","","","","","",""
"","null","image-keyboard-response","35","2.0.0","78515","pja7qwucv41","panda","sometimes I had to press the spacebar multiple times for the first part of the memory test","null","stimuli/organized/Novel pairs (tested)/n05bcactus.jpg","","","","","memory","false","novel","true","","",""
"","null","html-keyboard-response","36","2.0.0","79518","pja7qwucv41","panda","sometimes I had to press the spacebar multiple times for the first part of the memory test","null","<div style=""font-size:60px; color:black;"">+</div>","","","","","","","","","","",""
"","null","image-keyboard-response","37","2.0.0","82522","pja7qwucv41","panda","sometimes I had to press the spacebar multiple times for the first part of the memory test","null","stimuli/organized/STATE/USED/Sfiretrucktoy1.jpg","","","","","memory","false","state","true","","",""
"","null","html-keyboard-response","38","2.0.0","83525","pja7qwucv41","panda","sometimes I had to press the spacebar multiple times for the first part of the memory test","null","<div style=""font-size:60px; color:black;"">+</div>","","","","","","","","","","",""
"","null","image-keyboard-response","39","2.0.0","86528","pja7qwucv41","panda","sometimes I had to press the spacebar multiple times for the first part of the memory test","null","stimuli/organized/EXEMPLAR/USED/Eglobe2.jpg","","","","","memory","false","exemplar","true","","",""
"","null","html-keyboard-response","40","2.0.0","87531","pja7qwucv41","panda","sometimes I had to press the spacebar multiple times for the first part of the memory test","null","<div style=""font-size:60px; color:black;"">+</div>","","","","","","","","","","",""
"","null","image-keyboard-response","41","2.0.0","90535","pja7qwucv41","panda","sometimes I had to press the spacebar multiple times for the first part of the memory test","null","stimuli/organized/EXEMPLAR/USED/Ecalculator2.jpg","","","","","memory","false","exemplar","true","","",""
"","null","html-keyboard-response","42","2.0.0","91538","pja7qwucv41","panda","sometimes I had to press the spacebar multiple times for the first part of the memory test","null","<div style=""font-size:60px; color:black;"">+</div>","","","","","","","","","","",""
"","null","image-keyboard-response","43","2.0.0","94542","pja7qwucv41","panda","sometimes I had to press the spacebar multiple times for the first part of the memory test","null","stimuli/organized/STATE/USED/Sbelt2.jpg","","","","","memory","false","state","true","","",""
"","null","html-keyboard-response","44","2.0.0","95545","pja7qwucv41","panda","sometimes I had to press the spacebar multiple times for the first part of the memory test","null","<div style=""font-size:60px; color:black;"">+</div>","","","","","","","","","","",""
"","null","image-keyboard-response","45","2.0.0","98549","pja7qwucv41","panda","sometimes I had to press the spacebar multiple times for the first part of the memory test","null","stimuli/organized/STATE/USED/Sjuiceglass2.JPG","","","","","memory","false","state","true","","",""
"","null","html-keyboard-response","46","2.0.0","99551","pja7qwucv41","panda","sometimes I had to press the spacebar multiple times for the first part of the memory test","null","<div style=""font-size:60px; color:black;"">+</div>","","","","","","","","","","",""
"","null","image-keyboard-response","47","2.0.0","102555","pja7qwucv41","panda","sometimes I had to press the spacebar multiple times for the first part of the memory test","null","stimuli/organized/EXEMPLAR/USED/Ebell2.jpg","","","","","memory","false","exemplar","true","","",""
"","null","html-keyboard-response","48","2.0.0","103557","pja7qwucv41","panda","sometimes I had to press the spacebar multiple times for the first part of the memory test","null","<div style=""font-size:60px; color:black;"">+</div>","","","","","","","","","","",""
"","null","image-keyboard-response","49","2.0.0","106561","pja7qwucv41","panda","sometimes I had to press the spacebar multiple times for the first part of the memory test","null","stimuli/organized/STATE/USED/Seggs1.jpg","","","","","memory","false","state","true","","",""
"","null","html-keyboard-response","50","2.0.0","107564","pja7qwucv41","panda","sometimes I had to press the spacebar multiple times for the first part of the memory test","null","<div style=""font-size:60px; color:black;"">+</div>","","","","","","","","","","",""
"","null","image-keyboard-response","51","2.0.0","110567","pja7qwucv41","panda","sometimes I had to press the spacebar multiple times for the first part of the memory test","null","stimuli/organized/STATE/USED/Sdie2.jpg","","","","","memory","false","state","true","","",""
"","null","html-keyboard-response","52","2.0.0","111571","pja7qwucv41","panda","sometimes I had to press the spacebar multiple times for the first part of the memory test","null","<div style=""font-size:60px; color:black;"">+</div>","","","","","","","","","","",""
"","null","image-keyboard-response","53","2.0.0","114575","pja7qwucv41","panda","sometimes I had to press the spacebar multiple times for the first part of the memory test","null","stimuli/organized/Novel pairs (tested)/n07apotato.jpg","","","","","memory","false","novel","true","","",""
"","null","html-keyboard-response","54","2.0.0","115577","pja7qwucv41","panda","sometimes I had to press the spacebar multiple times for the first part of the memory test","null","<div style=""font-size:60px; color:black;"">+</div>","","","","","","","","","","",""
"","null","image-keyboard-response","55","2.0.0","118581","pja7qwucv41","panda","sometimes I had to press the spacebar multiple times for the first part of the memory test","null","stimuli/organized/EXEMPLAR/USED/Econe1.jpg","","","","","memory","false","exemplar","true","","",""
"","null","html-keyboard-response","56","2.0.0","119583","pja7qwucv41","panda","sometimes I had to press the spacebar multiple times for the first part of the memory test","null","<div style=""font-size:60px; color:black;"">+</div>","","","","","","","","","","",""
"","null","image-keyboard-response","57","2.0.0","122587","pja7qwucv41","panda","sometimes I had to press the spacebar multiple times for the first part of the memory test","null","stimuli/organized/Novel pairs (tested)/n13bdustpan.jpg","","","","","memory","false","novel","true","","",""
"","null","html-keyboard-response","58","2.0.0","123589","pja7qwucv41","panda","sometimes I had to press the spacebar multiple times for the first part of the memory test","null","<div style=""font-size:60px; color:black;"">+</div>","","","","","","","","","","",""
"","null","image-keyboard-response","59","2.0.0","126591","pja7qwucv41","panda","sometimes I had to press the spacebar multiple times for the first part of the memory test","null","stimuli/organized/STATE/USED/Scookies1.JPG","","","","","memory","false","state","true","","",""
"","null","html-keyboard-response","60","2.0.0","127593","pja7qwucv41","panda","sometimes I had to press the spacebar multiple times for the first part of the memory test","null","<div style=""font-size:60px; color:black;"">+</div>","","","","","","","","","","",""
"","null","image-keyboard-response","61","2.0.0","130595","pja7qwucv41","panda","sometimes I had to press the spacebar multiple times for the first part of the memory test","null","stimuli/organized/Novel pairs (tested)/n12bwatch.jpg","","","","","memory","false","novel","true","","",""
"","null","html-keyboard-response","62","2.0.0","131598","pja7qwucv41","panda","sometimes I had to press the spacebar multiple times for the first part of the memory test","null","<div style=""font-size:60px; color:black;"">+</div>","","","","","","","","","","",""
"","null","image-keyboard-response","63","2.0.0","134600","pja7qwucv41","panda","sometimes I had to press the spacebar multiple times for the first part of the memory test","null","stimuli/organized/Novel pairs (tested)/n14bgolfball.jpg","","","","","memory","false","novel","true","","",""
"","null","html-keyboard-response","64","2.0.0","135603","pja7qwucv41","panda","sometimes I had to press the spacebar multiple times for the first part of the memory test","null","<div style=""font-size:60px; color:black;"">+</div>","","","","","","","","","","",""
"","null","image-keyboard-response","65","2.0.0","138606","pja7qwucv41","panda","sometimes I had to press the spacebar multiple times for the first part of the memory test","null","stimuli/organized/STATE/USED/Sgiftbox2.jpg","","","","","memory","false","state","true","","",""
"","null","html-keyboard-response","66","2.0.0","139609","pja7qwucv41","panda","sometimes I had to press the spacebar multiple times for the first part of the memory test","null","<div style=""font-size:60px; color:black;"">+</div>","","","","","","","","","","",""
"","null","image-keyboard-response","67","2.0.0","142612","pja7qwucv41","panda","sometimes I had to press the spacebar multiple times for the first part of the memory test","null","stimuli/organized/STATE/USED/Sscanner1.JPG","","","","","memory","false","state","true","","",""
"","null","html-keyboard-response","68","2.0.0","143615","pja7qwucv41","panda","sometimes I had to press the spacebar multiple times for the first part of the memory test","null","<div style=""font-size:60px; color:black;"">+</div>","","","","","","","","","","",""
"","null","image-keyboard-response","69","2.0.0","146617","pja7qwucv41","panda","sometimes I had to press the spacebar multiple times for the first part of the memory test","null","stimuli/organized/Novel pairs (tested)/n19apickle.jpg","","","","","memory","false","novel","true","","",""
"","null","html-keyboard-response","70","2.0.0","147620","pja7qwucv41","panda","sometimes I had to press the spacebar multiple times for the first part of the memory test","null","<div style=""font-size:60px; color:black;"">+</div>","","","","","","","","","","",""
"","null","image-keyboard-response","71","2.0.0","150623","pja7qwucv41","panda","sometimes I had to press the spacebar multiple times for the first part of the memory test","null","stimuli/organized/Novel pairs (tested)/n17avendingmachine.jpg","","","","","memory","false","novel","true","","",""
"","null","html-keyboard-response","72","2.0.0","151626","pja7qwucv41","panda","sometimes I had to press the spacebar multiple times for the first part of the memory test","null","<div style=""font-size:60px; color:black;"">+</div>","","","","","","","","","","",""
"","null","image-keyboard-response","73","2.0.0","154629","pja7qwucv41","panda","sometimes I had to press the spacebar multiple times for the first part of the memory test","null","stimuli/organized/STATE/USED/Sbottles2.JPG","","","","","memory","false","state","true","","",""
"","null","html-keyboard-response","74","2.0.0","155632","pja7qwucv41","panda","sometimes I had to press the spacebar multiple times for the first part of the memory test","null","<div style=""font-size:60px; color:black;"">+</div>","","","","","","","","","","",""
"","null","image-keyboard-response","75","2.0.0","158634","pja7qwucv41","panda","sometimes I had to press the spacebar multiple times for the first part of the memory test","null","stimuli/organized/STATE/USED/Spotpan1.JPG","","","","","memory","false","state","true","","",""
"","null","html-keyboard-response","76","2.0.0","159637","pja7qwucv41","panda","sometimes I had to press the spacebar multiple times for the first part of the memory test","null","<div style=""font-size:60px; color:black;"">+</div>","","","","","","","","","","",""
"","null","image-keyboard-response","77","2.0.0","162640","pja7qwucv41","panda","sometimes I had to press the spacebar multiple times for the first part of the memory test","null","stimuli/organized/Novel pairs (tested)/n11abatteries.jpg","","","","","memory","false","novel","true","","",""
"","null","html-keyboard-response","78","2.0.0","163643","pja7qwucv41","panda","sometimes I had to press the spacebar multiple times for the first part of the memory test","null","<div style=""font-size:60px; color:black;"">+</div>","","","","","","","","","","",""
"","null","image-keyboard-response","79","2.0.0","166646","pja7qwucv41","panda","sometimes I had to press the spacebar multiple times for the first part of the memory test","null","stimuli/organized/STATE/USED/Sbooks2.JPG","","","","","memory","false","state","true","","",""
"","null","html-keyboard-response","80","2.0.0","167649","pja7qwucv41","panda","sometimes I had to press the spacebar multiple times for the first part of the memory test","null","<div style=""font-size:60px; color:black;"">+</div>","","","","","","","","","","",""
"","null","image-keyboard-response","81","2.0.0","170652","pja7qwucv41","panda","sometimes I had to press the spacebar multiple times for the first part of the memory test","null","stimuli/organized/STATE/USED/Sscissors2.JPG","","","","","memory","false","state","true","","",""
"","null","html-keyboard-response","82","2.0.0","171655","pja7qwucv41","panda","sometimes I had to press the spacebar multiple times for the first part of the memory test","null","<div style=""font-size:60px; color:black;"">+</div>","","","","","","","","","","",""
"","null","image-keyboard-response","83","2.0.0","174658","pja7qwucv41","panda","sometimes I had to press the spacebar multiple times for the first part of the memory test","null","stimuli/organized/EXEMPLAR/USED/Efan1.jpg","","","","","memory","false","exemplar","true","","",""
"","null","html-keyboard-response","84","2.0.0","175661","pja7qwucv41","panda","sometimes I had to press the spacebar multiple times for the first part of the memory test","null","<div style=""font-size:60px; color:black;"">+</div>","","","","","","","","","","",""
"","null","image-keyboard-response","85","2.0.0","178664","pja7qwucv41","panda","sometimes I had to press the spacebar multiple times for the first part of the memory test","null","stimuli/organized/STATE/USED/Sdrum2.jpg","","","","","memory","false","state","true","","",""
"","null","html-keyboard-response","86","2.0.0","179666","pja7qwucv41","panda","sometimes I had to press the spacebar multiple times for the first part of the memory test","null","<div style=""font-size:60px; color:black;"">+</div>","","","","","","","","","","",""
"","null","image-keyboard-response","87","2.0.0","182669","pja7qwucv41","panda","sometimes I had to press the spacebar multiple times for the first part of the memory test","null","stimuli/organized/Novel pairs (tested)/n09bsaddle.jpg","","","","","memory","false","novel","true","","",""
"","null","html-keyboard-response","88","2.0.0","183672","pja7qwucv41","panda","sometimes I had to press the spacebar multiple times for the first part of the memory test","null","<div style=""font-size:60px; color:black;"">+</div>","","","","","","","","","","",""
"","null","image-keyboard-response","89","2.0.0","186675","pja7qwucv41","panda","sometimes I had to press the spacebar multiple times for the first part of the memory test","null","stimuli/organized/STATE/USED/Slaptop2.JPG","","","","","memory","false","state","true","","",""
"","null","html-keyboard-response","90","2.0.0","187677","pja7qwucv41","panda","sometimes I had to press the spacebar multiple times for the first part of the memory test","null","<div style=""font-size:60px; color:black;"">+</div>","","","","","","","","","","",""
"","null","image-keyboard-response","91","2.0.0","190679","pja7qwucv41","panda","sometimes I had to press the spacebar multiple times for the first part of the memory test","null","stimuli/organized/Novel pairs (tested)/n15bfootball.jpg","","","","","memory","false","novel","true","","",""
"","null","html-keyboard-response","92","2.0.0","191682","pja7qwucv41","panda","sometimes I had to press the spacebar multiple times for the first part of the memory test","null","<div style=""font-size:60px; color:black;"">+</div>","","","","","","","","","","",""
"","null","image-keyboard-response","93","2.0.0","194685","pja7qwucv41","panda","sometimes I had to press the spacebar multiple times for the first part of the memory test","null","stimuli/organized/STATE/USED/Shairbrush1.jpg","","","","","memory","false","state","true","","",""
"","null","html-keyboard-response","94","2.0.0","195687","pja7qwucv41","panda","sometimes I had to press the spacebar multiple times for the first part of the memory test","null","<div style=""font-size:60px; color:black;"">+</div>","","","","","","","","","","",""
"","2678","image-keyboard-response","95","2.0.0","198689","pja7qwucv41","panda","sometimes I had to press the spacebar multiple times for the first part of the memory test"," ","stimuli/organized/EXEMPLAR/USED/Ebread1.jpg","","","","","memory","false","exemplar","false","","",""
"","null","html-keyboard-response","96","2.0.0","199693","pja7qwucv41","panda","sometimes I had to press the spacebar multiple times for the first part of the memory test","null","<div style=""font-size:60px; color:red;"">+</div>","","","","","","","","","","",""
"","null","image-keyboard-response","97","2.0.0","202696","pja7qwucv41","panda","sometimes I had to press the spacebar multiple times for the first part of the memory test","null","stimuli/organized/STATE/USED/Sbrushes1.jpg","","","","","memory","false","state","true","","",""
"","null","html-keyboard-response","98","2.0.0","203698","pja7qwucv41","panda","sometimes I had to press the spacebar multiple times for the first part of the memory test","null","<div style=""font-size:60px; color:black;"">+</div>","","","","","","","","","","",""
"","null","image-keyboard-response","99","2.0.0","206701","pja7qwucv41","panda","sometimes I had to press the spacebar multiple times for the first part of the memory test","null","stimuli/organized/STATE/USED/Sdresser1.jpg","","","","","memory","false","state","true","","",""
"","null","html-keyboard-response","100","2.0.0","207704","pja7qwucv41","panda","sometimes I had to press the spacebar multiple times for the first part of the memory test","null","<div style=""font-size:60px; color:black;"">+</div>","","","","","","","","","","",""
"","null","image-keyboard-response","101","2.0.0","210706","pja7qwucv41","panda","sometimes I had to press the spacebar multiple times for the first part of the memory test","null","stimuli/organized/Novel pairs (tested)/n08bpaperclip.jpg","","","","","memory","false","novel","true","","",""
"","null","html-keyboard-response","102","2.0.0","211708","pja7qwucv41","panda","sometimes I had to press the spacebar multiple times for the first part of the memory test","null","<div style=""font-size:60px; color:black;"">+</div>","","","","","","","","","","",""
"","null","image-keyboard-response","103","2.0.0","214711","pja7qwucv41","panda","sometimes I had to press the spacebar multiple times for the first part of the memory test","null","stimuli/organized/Novel pairs (tested)/n01bcoin.jpg","","","","","memory","false","novel","true","","",""
"","null","html-keyboard-response","104","2.0.0","215714","pja7qwucv41","panda","sometimes I had to press the spacebar multiple times for the first part of the memory test","null","<div style=""font-size:60px; color:black;"">+</div>","","","","","","","","","","",""
"","null","image-keyboard-response","105","2.0.0","218717","pja7qwucv41","panda","sometimes I had to press the spacebar multiple times for the first part of the memory test","null","stimuli/organized/STATE/USED/Sapplesgreenbasket2.jpg","","","","","memory","false","state","true","","",""
"","null","html-keyboard-response","106","2.0.0","219720","pja7qwucv41","panda","sometimes I had to press the spacebar multiple times for the first part of the memory test","null","<div style=""font-size:60px; color:black;"">+</div>","","","","","","","","","","",""
"","827","image-keyboard-response","107","2.0.0","222722","pja7qwucv41","panda","sometimes I had to press the spacebar multiple times for the first part of the memory test"," ","stimuli/organized/Novel pairs (tested)/n14bgolfball.jpg","","","","","memory","true","novel","true","","",""
"","null","html-keyboard-response","108","2.0.0","223724","pja7qwucv41","panda","sometimes I had to press the spacebar multiple times for the first part of the memory test","null","<div style=""font-size:60px; color:green;"">+</div>","","","","","","","","","","",""
"","null","image-keyboard-response","109","2.0.0","226727","pja7qwucv41","panda","sometimes I had to press the spacebar multiple times for the first part of the memory test","null","stimuli/organized/STATE/USED/Sbureau1.JPG","","","","","memory","false","state","true","","",""
"","null","html-keyboard-response","110","2.0.0","227730","pja7qwucv41","panda","sometimes I had to press the spacebar multiple times for the first part of the memory test","null","<div style=""font-size:60px; color:black;"">+</div>","","","","","","","","","","",""
"","null","image-keyboard-response","111","2.0.0","230733","pja7qwucv41","panda","sometimes I had to press the spacebar multiple times for the first part of the memory test","null","stimuli/organized/EXEMPLAR/USED/Egame1.jpg","","","","","memory","false","exemplar","true","","",""
"","null","html-keyboard-response","112","2.0.0","231735","pja7qwucv41","panda","sometimes I had to press the spacebar multiple times for the first part of the memory test","null","<div style=""font-size:60px; color:black;"">+</div>","","","","","","","","","","",""
"","null","image-keyboard-response","113","2.0.0","234739","pja7qwucv41","panda","sometimes I had to press the spacebar multiple times for the first part of the memory test","null","stimuli/organized/EXEMPLAR/USED/Ecar1.jpg","","","","","memory","false","exemplar","true","","",""
"","null","html-keyboard-response","114","2.0.0","235742","pja7qwucv41","panda","sometimes I had to press the spacebar multiple times for the first part of the memory test","null","<div style=""font-size:60px; color:black;"">+</div>","","","","","","","","","","",""
"","null","image-keyboard-response","115","2.0.0","238744","pja7qwucv41","panda","sometimes I had to press the spacebar multiple times for the first part of the memory test","null","stimuli/organized/EXEMPLAR/USED/Echisel2.jpg","","","","","memory","false","exemplar","true","","",""
"","null","html-keyboard-response","116","2.0.0","239747","pja7qwucv41","panda","sometimes I had to press the spacebar multiple times for the first part of the memory test","null","<div style=""font-size:60px; color:black;"">+</div>","","","","","","","","","","",""
"","null","image-keyboard-response","117","2.0.0","242751","pja7qwucv41","panda","sometimes I had to press the spacebar multiple times for the first part of the memory test","null","stimuli/organized/EXEMPLAR/USED/Egoggles1.jpg","","","","","memory","false","exemplar","true","","",""
"","null","html-keyboard-response","118","2.0.0","243753","pja7qwucv41","panda","sometimes I had to press the spacebar multiple times for the first part of the memory test","null","<div style=""font-size:60px; color:black;"">+</div>","","","","","","","","","","",""
"","null","image-keyboard-response","119","2.0.0","246756","pja7qwucv41","panda","sometimes I had to press the spacebar multiple times for the first part of the memory test","null","stimuli/organized/STATE/USED/Sflask2.jpg","","","","","memory","false","state","true","","",""
"","null","html-keyboard-response","120","2.0.0","247759","pja7qwucv41","panda","sometimes I had to press the spacebar multiple times for the first part of the memory test","null","<div style=""font-size:60px; color:black;"">+</div>","","","","","","","","","","",""
"","null","image-keyboard-response","121","2.0.0","250762","pja7qwucv41","panda","sometimes I had to press the spacebar multiple times for the first part of the memory test","null","stimuli/organized/STATE/USED/Scoffeemaker1.JPG","","","","","memory","false","state","true","","",""
"","null","html-keyboard-response","122","2.0.0","251765","pja7qwucv41","panda","sometimes I had to press the spacebar multiple times for the first part of the memory test","null","<div style=""font-size:60px; color:black;"">+</div>","","","","","","","","","","",""
"","null","image-keyboard-response","123","2.0.0","254769","pja7qwucv41","panda","sometimes I had to press the spacebar multiple times for the first part of the memory test","null","stimuli/organized/STATE/USED/Sdryer1.jpg","","","","","memory","false","state","true","","",""
"","null","html-keyboard-response","124","2.0.0","255771","pja7qwucv41","panda","sometimes I had to press the spacebar multiple times for the first part of the memory test","null","<div style=""font-size:60px; color:black;"">+</div>","","","","","","","","","","",""
"","1266","image-keyboard-response","125","2.0.0","258774","pja7qwucv41","panda","sometimes I had to press the spacebar multiple times for the first part of the memory test"," ","stimuli/organized/EXEMPLAR/USED/Ebicycle2.jpg","","","","","memory","true","exemplar","true","","",""
"","null","html-keyboard-response","126","2.0.0","259777","pja7qwucv41","panda","sometimes I had to press the spacebar multiple times for the first part of the memory test","null","<div style=""font-size:60px; color:green;"">+</div>","","","","","","","","","","",""
"","null","image-keyboard-response","127","2.0.0","262780","pja7qwucv41","panda","sometimes I had to press the spacebar multiple times for the first part of the memory test","null","stimuli/organized/Novel pairs (tested)/n04bbandaid.jpg","","","","","memory","false","novel","true","","",""
"","null","html-keyboard-response","128","2.0.0","263782","pja7qwucv41","panda","sometimes I had to press the spacebar multiple times for the first part of the memory test","null","<div style=""font-size:60px; color:black;"">+</div>","","","","","","","","","","",""
"","null","image-keyboard-response","129","2.0.0","266785","pja7qwucv41","panda","sometimes I had to press the spacebar multiple times for the first part of the memory test","null","stimuli/organized/Novel pairs (tested)/n02bsafetypin.jpg","","","","","memory","false","novel","true","","",""
"","null","html-keyboard-response","130","2.0.0","267788","pja7qwucv41","panda","sometimes I had to press the spacebar multiple times for the first part of the memory test","null","<div style=""font-size:60px; color:black;"">+</div>","","","","","","","","","","",""
"","null","image-keyboard-response","131","2.0.0","270790","pja7qwucv41","panda","sometimes I had to press the spacebar multiple times for the first part of the memory test","null","stimuli/organized/EXEMPLAR/USED/Echocolatebar1.jpg","","","","","memory","false","exemplar","true","","",""
"","null","html-keyboard-response","132","2.0.0","271793","pja7qwucv41","panda","sometimes I had to press the spacebar multiple times for the first part of the memory test","null","<div style=""font-size:60px; color:black;"">+</div>","","","","","","","","","","",""
"","null","image-keyboard-response","133","2.0.0","274797","pja7qwucv41","panda","sometimes I had to press the spacebar multiple times for the first part of the memory test","null","stimuli/organized/EXEMPLAR/USED/Ebracelet1.jpg","","","","","memory","false","exemplar","true","","",""
"","null","html-keyboard-response","134","2.0.0","275799","pja7qwucv41","panda","sometimes I had to press the spacebar multiple times for the first part of the memory test","null","<div style=""font-size:60px; color:black;"">+</div>","","","","","","","","","","",""
"","879","image-keyboard-response","135","2.0.0","278802","pja7qwucv41","panda","sometimes I had to press the spacebar multiple times for the first part of the memory test"," ","stimuli/organized/Novel pairs (tested)/n13bdustpan.jpg","","","","","memory","true","novel","true","","",""
"","null","html-keyboard-response","136","2.0.0","279804","pja7qwucv41","panda","sometimes I had to press the spacebar multiple times for the first part of the memory test","null","<div style=""font-size:60px; color:green;"">+</div>","","","","","","","","","","",""
"","null","image-keyboard-response","137","2.0.0","282808","pja7qwucv41","panda","sometimes I had to press the spacebar multiple times for the first part of the memory test","null","stimuli/organized/EXEMPLAR/USED/Ebasket1.jpg","","","","","memory","false","exemplar","true","","",""
"","null","html-keyboard-response","138","2.0.0","283810","pja7qwucv41","panda","sometimes I had to press the spacebar multiple times for the first part of the memory test","null","<div style=""font-size:60px; color:black;"">+</div>","","","","","","","","","","",""
"","null","image-keyboard-response","139","2.0.0","286813","pja7qwucv41","panda","sometimes I had to press the spacebar multiple times for the first part of the memory test","null","stimuli/organized/EXEMPLAR/USED/Edispenser1.jpg","","","","","memory","false","exemplar","true","","",""
"","null","html-keyboard-response","140","2.0.0","287816","pja7qwucv41","panda","sometimes I had to press the spacebar multiple times for the first part of the memory test","null","<div style=""font-size:60px; color:black;"">+</div>","","","","","","","","","","",""
"","null","image-keyboard-response","141","2.0.0","290819","pja7qwucv41","panda","sometimes I had to press the spacebar multiple times for the first part of the memory test","null","stimuli/organized/EXEMPLAR/USED/Eframe1.jpg","","","","","memory","false","exemplar","true","","",""
"","null","html-keyboard-response","142","2.0.0","291821","pja7qwucv41","panda","sometimes I had to press the spacebar multiple times for the first part of the memory test","null","<div style=""font-size:60px; color:black;"">+</div>","","","","","","","","","","",""
"","null","image-keyboard-response","143","2.0.0","294824","pja7qwucv41","panda","sometimes I had to press the spacebar multiple times for the first part of the memory test","null","stimuli/organized/STATE/USED/Sabacus2.jpg","","","","","memory","false","state","true","","",""
"","null","html-keyboard-response","144","2.0.0","295826","pja7qwucv41","panda","sometimes I had to press the spacebar multiple times for the first part of the memory test","null","<div style=""font-size:60px; color:black;"">+</div>","","","","","","","","","","",""
"","null","image-keyboard-response","145","2.0.0","298829","pja7qwucv41","panda","sometimes I had to press the spacebar multiple times for the first part of the memory test","null","stimuli/organized/STATE/USED/Sdishes2.JPG","","","","","memory","false","state","true","","",""
"","null","html-keyboard-response","146","2.0.0","299832","pja7qwucv41","panda","sometimes I had to press the spacebar multiple times for the first part of the memory test","null","<div style=""font-size:60px; color:black;"">+</div>","","","","","","","","","","",""
"","650","image-keyboard-response","147","2.0.0","302834","pja7qwucv41","panda","sometimes I had to press the spacebar multiple times for the first part of the memory test"," ","stimuli/organized/Novel pairs (tested)/n15bfootball.jpg","","","","","memory","true","novel","true","","",""
"","null","html-keyboard-response","148","2.0.0","303836","pja7qwucv41","panda","sometimes I had to press the spacebar multiple times for the first part of the memory test","null","<div style=""font-size:60px; color:green;"">+</div>","","","","","","","","","","",""
"","null","image-keyboard-response","149","2.0.0","306839","pja7qwucv41","panda","sometimes I had to press the spacebar multiple times for the first part of the memory test","null","stimuli/organized/Novel pairs (tested)/n20bshelf.jpg","","","","","memory","false","novel","true","","",""
"","null","html-keyboard-response","150","2.0.0","307842","pja7qwucv41","panda","sometimes I had to press the spacebar multiple times for the first part of the memory test","null","<div style=""font-size:60px; color:black;"">+</div>","","","","","","","","","","",""
"","null","image-keyboard-response","151","2.0.0","310844","pja7qwucv41","panda","sometimes I had to press the spacebar multiple times for the first part of the memory test","null","stimuli/organized/STATE/USED/Schinesefoodbox1.jpg","","","","","memory","false","state","true","","",""
"","null","html-keyboard-response","152","2.0.0","311846","pja7qwucv41","panda","sometimes I had to press the spacebar multiple times for the first part of the memory test","null","<div style=""font-size:60px; color:black;"">+</div>","","","","","","","","","","",""
"","1216","image-keyboard-response","153","2.0.0","314849","pja7qwucv41","panda","sometimes I had to press the spacebar multiple times for the first part of the memory test"," ","stimuli/organized/Novel pairs (tested)/n03bbagel.jpg","","","","","memory","false","novel","false","","",""
"","null","html-keyboard-response","154","2.0.0","315852","pja7qwucv41","panda","sometimes I had to press the spacebar multiple times for the first part of the memory test","null","<div style=""font-size:60px; color:red;"">+</div>","","","","","","","","","","",""
"","null","image-keyboard-response","155","2.0.0","318855","pja7qwucv41","panda","sometimes I had to press the spacebar multiple times for the first part of the memory test","null","stimuli/organized/STATE/USED/Sphone2.JPG","","","","","memory","false","state","true","","",""
"","null","html-keyboard-response","156","2.0.0","319858","pja7qwucv41","panda","sometimes I had to press the spacebar multiple times for the first part of the memory test","null","<div style=""font-size:60px; color:black;"">+</div>","","","","","","","","","","",""
"","null","image-keyboard-response","157","2.0.0","322861","pja7qwucv41","panda","sometimes I had to press the spacebar multiple times for the first part of the memory test","null","stimuli/organized/EXEMPLAR/USED/Ecamera2.jpg","","","","","memory","false","exemplar","true","","",""
"","null","html-keyboard-response","158","2.0.0","323864","pja7qwucv41","panda","sometimes I had to press the spacebar multiple times for the first part of the memory test","null","<div style=""font-size:60px; color:black;"">+</div>","","","","","","","","","","",""
"","1377","image-keyboard-response","159","2.0.0","326868","pja7qwucv41","panda","sometimes I had to press the spacebar multiple times for the first part of the memory test"," ","stimuli/organized/STATE/USED/Sdishes2.JPG","","","","","memory","true","state","true","","",""
"","null","html-keyboard-response","160","2.0.0","327871","pja7qwucv41","panda","sometimes I had to press the spacebar multiple times for the first part of the memory test","null","<div style=""font-size:60px; color:green;"">+</div>","","","","","","","","","","",""
"","null","image-keyboard-response","161","2.0.0","330873","pja7qwucv41","panda","sometimes I had to press the spacebar multiple times for the first part of the memory test","null","stimuli/organized/STATE/USED/Sbabytoy1.JPG","","","","","memory","false","state","true","","",""
"","null","html-keyboard-response","162","2.0.0","331876","pja7qwucv41","panda","sometimes I had to press the spacebar multiple times for the first part of the memory test","null","<div style=""font-size:60px; color:black;"">+</div>","","","","","","","","","","",""
"","null","image-keyboard-response","163","2.0.0","334879","pja7qwucv41","panda","sometimes I had to press the spacebar multiple times for the first part of the memory test","null","stimuli/organized/STATE/USED/Sgiftbag1.jpg","","","","","memory","false","state","true","","",""
"","null","html-keyboard-response","164","2.0.0","335881","pja7qwucv41","panda","sometimes I had to press the spacebar multiple times for the first part of the memory test","null","<div style=""font-size:60px; color:black;"">+</div>","","","","","","","","","","",""
"","null","image-keyboard-response","165","2.0.0","338883","pja7qwucv41","panda","sometimes I had to press the spacebar multiple times for the first part of the memory test","null","stimuli/organized/Novel pairs (tested)/n16abananas.jpg","","","","","memory","false","novel","true","","",""
"","14514","html-button-response","166","2.0.0","353400","pja7qwucv41","panda","sometimes I had to press the spacebar multiple times for the first part of the memory test","0","<p>You have completed the study phase.</p><p>Take a short break. Press the button below when you are ready to continue.</p>","","","","","","","","","","",""
"","6625","html-keyboard-response","167","2.0.0","360026","pja7qwucv41","panda","sometimes I had to press the spacebar multiple times for the first part of the memory test"," ","<p>You will now be shown pairs of images.</p><p>Select the image you remember seeing during the study phase.</p><p>Focus on accuracy, not speed.</p><p>Press any key to begin.</p>","","","","","","","","","","",""
"","3941","html-button-response","168","2.0.0","363969","pja7qwucv41","panda","sometimes I had to press the spacebar multiple times for the first part of the memory test","1","Which of these items did you see earlier?","","","","","test","","state","false","stimuli/organized/STATE/USED/Sjuiceglass2.JPG","stimuli/organized/STATE/USED/Sjuiceglass1.JPG","0"
"","1548","html-button-response","169","2.0.0","365519","pja7qwucv41","panda","sometimes I had to press the spacebar multiple times for the first part of the memory test","0","Which of these items did you see earlier?","","","","","test","","state","true","stimuli/organized/STATE/USED/Sphone2.JPG","stimuli/organized/STATE/USED/Sphone1.JPG","0"
"","1133","html-button-response","170","2.0.0","366653","pja7qwucv41","panda","sometimes I had to press the spacebar multiple times for the first part of the memory test","0","Which of these items did you see earlier?","","","","","test","","novel","true","stimuli/organized/Novel pairs (tested)/n03bbagel.jpg","stimuli/organized/Novel pairs (tested)/n03acamel.jpg","0"
"","1383","html-button-response","171","2.0.0","368037","pja7qwucv41","panda","sometimes I had to press the spacebar multiple times for the first part of the memory test","0","Which of these items did you see earlier?","","","","","test","","state","true","stimuli/organized/STATE/USED/Scoffeemaker1.JPG","stimuli/organized/STATE/USED/Scoffeemaker2.JPG","0"
"","1596","html-button-response","172","2.0.0","369635","pja7qwucv41","panda","sometimes I had to press the spacebar multiple times for the first part of the memory test","1","Which of these items did you see earlier?","","","","","test","","exemplar","true","stimuli/organized/EXEMPLAR/USED/Ecabinet2.jpg","stimuli/organized/EXEMPLAR/USED/Ecabinet1.jpg","1"
"","3715","html-button-response","173","2.0.0","373351","pja7qwucv41","panda","sometimes I had to press the spacebar multiple times for the first part of the memory test","1","Which of these items did you see earlier?","","","","","test","","state","true","stimuli/organized/STATE/USED/Sgrinder1.jpg","stimuli/organized/STATE/USED/Sgrinder2.jpg","1"
"","1863","html-button-response","174","2.0.0","375216","pja7qwucv41","panda","sometimes I had to press the spacebar multiple times for the first part of the memory test","0","Which of these items did you see earlier?","","","","","test","","state","true","stimuli/organized/STATE/USED/Scrayons2.jpg","stimuli/organized/STATE/USED/Scrayons1.jpg","0"
"","1287","html-button-response","175","2.0.0","376503","pja7qwucv41","panda","sometimes I had to press the spacebar multiple times for the first part of the memory test","0","Which of these items did you see earlier?","","","","","test","","exemplar","true","stimuli/organized/EXEMPLAR/USED/Ebicycle2.jpg","stimuli/organized/EXEMPLAR/USED/Ebicycle1.jpg","0"
"","3547","html-button-response","176","2.0.0","380051","pja7qwucv41","panda","sometimes I had to press the spacebar multiple times for the first part of the memory test","0","Which of these items did you see earlier?","","","","","test","","novel","true","stimuli/organized/Novel pairs (tested)/n10awindmill.jpg","stimuli/organized/Novel pairs (tested)/n10bturkey.jpg","0"
"","2217","html-button-response","177","2.0.0","382269","pja7qwucv41","panda","sometimes I had to press the spacebar multiple times for the first part of the memory test","1","Which of these items did you see earlier?","","","","","test","","state","false","stimuli/organized/STATE/USED/Sapplesgreenbasket2.jpg","stimuli/organized/STATE/USED/Sapplesgreenbasket1.jpg","0"
"","2114","html-button-response","178","2.0.0","384384","pja7qwucv41","panda","sometimes I had to press the spacebar multiple times for the first part of the memory test","1","Which of these items did you see earlier?","","","","","test","","state","true","stimuli/organized/STATE/USED/Sgiftbag1.jpg","stimuli/organized/STATE/USED/Sgiftbag2.jpg","1"
"","2034","html-button-response","179","2.0.0","386420","pja7qwucv41","panda","sometimes I had to press the spacebar multiple times for the first part of the memory test","1","Which of these items did you see earlier?","","","","","test","","novel","true","stimuli/organized/Novel pairs (tested)/n16abananas.jpg","stimuli/organized/Novel pairs (tested)/n16bhammer.jpg","1"
"","1612","html-button-response","180","2.0.0","388034","pja7qwucv41","panda","sometimes I had to press the spacebar multiple times for the first part of the memory test","0","Which of these items did you see earlier?","","","","","test","","state","true","stimuli/organized/STATE/USED/Sbriefcase2.jpg","stimuli/organized/STATE/USED/Sbriefcase1.jpg","0"
"","2766","html-button-response","181","2.0.0","390801","pja7qwucv41","panda","sometimes I had to press the spacebar multiple times for the first part of the memory test","1","Which of these items did you see earlier?","","","","","test","","exemplar","true","stimuli/organized/EXEMPLAR/USED/Eframe1.jpg","stimuli/organized/EXEMPLAR/USED/Eframe2.jpg","1"
"","1415","html-button-response","182","2.0.0","392217","pja7qwucv41","panda","sometimes I had to press the spacebar multiple times for the first part of the memory test","0","Which of these items did you see earlier?","","","","","test","","novel","true","stimuli/organized/Novel pairs (tested)/n06acane.jpg","stimuli/organized/Novel pairs (tested)/n06blipstick.jpg","0"
"","1268","html-button-response","183","2.0.0","393486","pja7qwucv41","panda","sometimes I had to press the spacebar multiple times for the first part of the memory test","0","Which of these items did you see earlier?","","","","","test","","state","false","stimuli/organized/STATE/USED/Sbottles2.JPG","stimuli/organized/STATE/USED/Sbottles1.JPG","1"
"","1682","html-button-response","184","2.0.0","395169","pja7qwucv41","panda","sometimes I had to press the spacebar multiple times for the first part of the memory test","1","Which of these items did you see earlier?","","","","","test","","state","true","stimuli/organized/STATE/USED/Sabacus2.jpg","stimuli/organized/STATE/USED/Sabacus1.jpg","1"
"","1081","html-button-response","185","2.0.0","396251","pja7qwucv41","panda","sometimes I had to press the spacebar multiple times for the first part of the memory test","0","Which of these items did you see earlier?","","","","","test","","novel","true","stimuli/organized/Novel pairs (tested)/n19apickle.jpg","stimuli/organized/Novel pairs (tested)/n19bhairbrush.jpg","0"
"","1450","html-button-response","186","2.0.0","397703","pja7qwucv41","panda","sometimes I had to press the spacebar multiple times for the first part of the memory test","0","Which of these items did you see earlier?","","","","","test","","novel","false","stimuli/organized/Novel pairs (tested)/n05bcactus.jpg","stimuli/organized/Novel pairs (tested)/n05abarrel.jpg","1"
"","1364","html-button-response","187","2.0.0","399068","pja7qwucv41","panda","sometimes I had to press the spacebar multiple times for the first part of the memory test","1","Which of these items did you see earlier?","","","","","test","","exemplar","true","stimuli/organized/EXEMPLAR/USED/Ebell2.jpg","stimuli/organized/EXEMPLAR/USED/Ebell1.jpg","1"
"","1313","html-button-response","188","2.0.0","400383","pja7qwucv41","panda","sometimes I had to press the spacebar multiple times for the first part of the memory test","0","Which of these items did you see earlier?","","","","","test","","state","true","stimuli/organized/STATE/USED/Sdrum2.jpg","stimuli/organized/STATE/USED/Sdrum1.jpg","0"
"","1982","html-button-response","189","2.0.0","402365","pja7qwucv41","panda","sometimes I had to press the spacebar multiple times for the first part of the memory test","1","Which of these items did you see earlier?","","","","","test","","exemplar","true","stimuli/organized/EXEMPLAR/USED/Efeather1.jpg","stimuli/organized/EXEMPLAR/USED/Efeather2.jpg","1"
"","3101","html-button-response","190","2.0.0","405468","pja7qwucv41","panda","sometimes I had to press the spacebar multiple times for the first part of the memory test","0","Which of these items did you see earlier?","","","","","test","","exemplar","false","stimuli/organized/EXEMPLAR/USED/Econe1.jpg","stimuli/organized/EXEMPLAR/USED/Econe2.jpg","1"
"","1130","html-button-response","191","2.0.0","406599","pja7qwucv41","panda","sometimes I had to press the spacebar multiple times for the first part of the memory test","0","Which of these items did you see earlier?","","","","","test","","state","true","stimuli/organized/STATE/USED/Sbooks2.JPG","stimuli/organized/STATE/USED/Sbooks1.JPG","0"
"","1266","html-button-response","192","2.0.0","407866","pja7qwucv41","panda","sometimes I had to press the spacebar multiple times for the first part of the memory test","1","Which of these items did you see earlier?","","","","","test","","novel","true","stimuli/organized/Novel pairs (tested)/n02bsafetypin.jpg","stimuli/organized/Novel pairs (tested)/n02aaxe.jpg","1"
"","1267","html-button-response","193","2.0.0","409134","pja7qwucv41","panda","sometimes I had to press the spacebar multiple times for the first part of the memory test","0","Which of these items did you see earlier?","","","","","test","","novel","true","stimuli/organized/Novel pairs (tested)/n07apotato.jpg","stimuli/organized/Novel pairs (tested)/n07bswimmingpool.jpg","0"
"","2468","html-button-response","194","2.0.0","411604","pja7qwucv41","panda","sometimes I had to press the spacebar multiple times for the first part of the memory test","0","Which of these items did you see earlier?","","","","","test","","state","true","stimuli/organized/STATE/USED/Sscanner1.JPG","stimuli/organized/STATE/USED/Sscanner2.JPG","0"
"","1279","html-button-response","195","2.0.0","412884","pja7qwucv41","panda","sometimes I had to press the spacebar multiple times for the first part of the memory test","0","Which of these items did you see earlier?","","","","","test","","exemplar","false","stimuli/organized/EXEMPLAR/USED/Ebracelet1.jpg","stimuli/organized/EXEMPLAR/USED/Ebracelet2.jpg","1"
"","1098","html-button-response","196","2.0.0","413983","pja7qwucv41","panda","sometimes I had to press the spacebar multiple times for the first part of the memory test","0","Which of these items did you see earlier?","","","","","test","","novel","true","stimuli/organized/Novel pairs (tested)/n08bpaperclip.jpg","stimuli/organized/Novel pairs (tested)/n08aoven.jpg","0"
"","1798","html-button-response","197","2.0.0","415783","pja7qwucv41","panda","sometimes I had to press the spacebar multiple times for the first part of the memory test","1","Which of these items did you see earlier?","","","","","test","","exemplar","true","stimuli/organized/EXEMPLAR/USED/Ecalculator2.jpg","stimuli/organized/EXEMPLAR/USED/Ecalculator1.jpg","1"
"","1967","html-button-response","198","2.0.0","417751","pja7qwucv41","panda","sometimes I had to press the spacebar multiple times for the first part of the memory test","0","Which of these items did you see earlier?","","","","","test","","exemplar","true","stimuli/organized/EXEMPLAR/USED/Egoggles1.jpg","stimuli/organized/EXEMPLAR/USED/Egoggles2.jpg","0"
"","4613","html-button-response","199","2.0.0","422366","pja7qwucv41","panda","sometimes I had to press the spacebar multiple times for the first part of the memory test","1","Which of these items did you see earlier?","","","","","test","","state","true","stimuli/organized/STATE/USED/Seggs1.jpg","stimuli/organized/STATE/USED/Seggs2.jpg","1"
"","1232","html-button-response","200","2.0.0","423599","pja7qwucv41","panda","sometimes I had to press the spacebar multiple times for the first part of the memory test","0","Which of these items did you see earlier?","","","","","test","","novel","true","stimuli/organized/Novel pairs (tested)/n18apretzel.jpg","stimuli/organized/Novel pairs (tested)/n18bsnail.jpg","0"
"","1782","html-button-response","201","2.0.0","425382","pja7qwucv41","panda","sometimes I had to press the spacebar multiple times for the first part of the memory test","0","Which of these items did you see earlier?","","","","","test","","state","false","stimuli/organized/STATE/USED/Sscissors2.JPG","stimuli/organized/STATE/USED/Sscissors1.JPG","1"
"","1450","html-button-response","202","2.0.0","426833","pja7qwucv41","panda","sometimes I had to press the spacebar multiple times for the first part of the memory test","0","Which of these items did you see earlier?","","","","","test","","state","true","stimuli/organized/STATE/USED/Sbreadbox1.JPG","stimuli/organized/STATE/USED/Sbreadbox2.JPG","0"
"","1616","html-button-response","203","2.0.0","428450","pja7qwucv41","panda","sometimes I had to press the spacebar multiple times for the first part of the memory test","1","Which of these items did you see earlier?","","","","","test","","novel","true","stimuli/organized/Novel pairs (tested)/n09bsaddle.jpg","stimuli/organized/Novel pairs (tested)/n09apenguin.jpg","1"
"","1433","html-button-response","204","2.0.0","429884","pja7qwucv41","panda","sometimes I had to press the spacebar multiple times for the first part of the memory test","1","Which of these items did you see earlier?","","","","","test","","state","true","stimuli/organized/STATE/USED/Spie2.JPG","stimuli/organized/STATE/USED/Spie1.JPG","1"
"","1529","html-button-response","205","2.0.0","431415","pja7qwucv41","panda","sometimes I had to press the spacebar multiple times for the first part of the memory test","1","Which of these items did you see earlier?","","","","","test","","novel","true","stimuli/organized/Novel pairs (tested)/n13bdustpan.jpg","stimuli/organized/Novel pairs (tested)/n13ablueberries.jpg","1"
"","1232","html-button-response","206","2.0.0","432648","pja7qwucv41","panda","sometimes I had to press the spacebar multiple times for the first part of the memory test","0","Which of these items did you see earlier?","","","","","test","","state","true","stimuli/organized/STATE/USED/Sdonut2.jpg","stimuli/organized/STATE/USED/Sdonut1.jpg","0"
"","1516","html-button-response","207","2.0.0","434165","pja7qwucv41","panda","sometimes I had to press the spacebar multiple times for the first part of the memory test","1","Which of these items did you see earlier?","","","","","test","","state","true","stimuli/organized/STATE/USED/Sdishes2.JPG","stimuli/organized/STATE/USED/Sdishes1.JPG","1"
"","1068","html-button-response","208","2.0.0","435234","pja7qwucv41","panda","sometimes I had to press the spacebar multiple times for the first part of the memory test","1","Which of these items did you see earlier?","","","","","test","","state","true","stimuli/organized/STATE/USED/Sbabytoy1.JPG","stimuli/organized/STATE/USED/Sbabytoy2.JPG","1"
"","1248","html-button-response","209","2.0.0","436482","pja7qwucv41","panda","sometimes I had to press the spacebar multiple times for the first part of the memory test","0","Which of these items did you see earlier?","","","","","test","","exemplar","false","stimuli/organized/EXEMPLAR/USED/Ebasket1.jpg","stimuli/organized/EXEMPLAR/USED/Ebasket2.jpg","1"
"","1432","html-button-response","210","2.0.0","437915","pja7qwucv41","panda","sometimes I had to press the spacebar multiple times for the first part of the memory test","1","Which of these items did you see earlier?","","","","","test","","state","true","stimuli/organized/STATE/USED/Sdryer1.jpg","stimuli/organized/STATE/USED/Sdryer2.jpg","1"
"","1767","html-button-response","211","2.0.0","439683","pja7qwucv41","panda","sometimes I had to press the spacebar multiple times for the first part of the memory test","0","Which of these items did you see earlier?","","","","","test","","exemplar","true","stimuli/organized/EXEMPLAR/USED/Efan1.jpg","stimuli/organized/EXEMPLAR/USED/Efan2.jpg","0"
"","932","html-button-response","212","2.0.0","440616","pja7qwucv41","panda","sometimes I had to press the spacebar multiple times for the first part of the memory test","0","Which of these items did you see earlier?","","","","","test","","novel","true","stimuli/organized/Novel pairs (tested)/n01bcoin.jpg","stimuli/organized/Novel pairs (tested)/n01aladybug.jpg","0"
"","2084","html-button-response","213","2.0.0","442701","pja7qwucv41","panda","sometimes I had to press the spacebar multiple times for the first part of the memory test","1","Which of these items did you see earlier?","","","","","test","","exemplar","false","stimuli/organized/EXEMPLAR/USED/Ebread1.jpg","stimuli/organized/EXEMPLAR/USED/Ebread2.jpg","0"
"","1313","html-button-response","214","2.0.0","444015","pja7qwucv41","panda","sometimes I had to press the spacebar multiple times for the first part of the memory test","0","Which of these items did you see earlier?","","","","","test","","state","false","stimuli/organized/STATE/USED/Sgiftbox2.jpg","stimuli/organized/STATE/USED/Sgiftbox1.jpg","1"
"","1784","html-button-response","215","2.0.0","445800","pja7qwucv41","panda","sometimes I had to press the spacebar multiple times for the first part of the memory test","1","Which of these items did you see earlier?","","","","","test","","state","false","stimuli/organized/STATE/USED/Scookies1.JPG","stimuli/organized/STATE/USED/Scookies2.JPG","0"
"","2081","html-button-response","216","2.0.0","447882","pja7qwucv41","panda","sometimes I had to press the spacebar multiple times for the first part of the memory test","0","Which of these items did you see earlier?","","","","","test","","state","true","stimuli/organized/STATE/USED/Slaptop2.JPG","stimuli/organized/STATE/USED/Slaptop1.JPG","0"
"","1186","html-button-response","217","2.0.0","449070","pja7qwucv41","panda","sometimes I had to press the spacebar multiple times for the first part of the memory test","0","Which of these items did you see earlier?","","","","","test","","state","true","stimuli/organized/STATE/USED/Sflask2.jpg","stimuli/organized/STATE/USED/Sflask1.jpg","0"
"","1663","html-button-response","218","2.0.0","450734","pja7qwucv41","panda","sometimes I had to press the spacebar multiple times for the first part of the memory test","1","Which of these items did you see earlier?","","","","","test","","exemplar","false","stimuli/organized/EXEMPLAR/USED/Egrapes1.jpg","stimuli/organized/EXEMPLAR/USED/Egrapes2.jpg","0"
"","1812","html-button-response","219","2.0.0","452547","pja7qwucv41","panda","sometimes I had to press the spacebar multiple times for the first part of the memory test","1","Which of these items did you see earlier?","","","","","test","","state","false","stimuli/organized/STATE/USED/Sbureau1.JPG","stimuli/organized/STATE/USED/Sbureau2.JPG","0"
"","1300","html-button-response","220","2.0.0","453849","pja7qwucv41","panda","sometimes I had to press the spacebar multiple times for the first part of the memory test","0","Which of these items did you see earlier?","","","","","test","","novel","true","stimuli/organized/Novel pairs (tested)/n17avendingmachine.jpg","stimuli/organized/Novel pairs (tested)/n17bweddingdress.jpg","0"
"","1185","html-button-response","221","2.0.0","455035","pja7qwucv41","panda","sometimes I had to press the spacebar multiple times for the first part of the memory test","0","Which of these items did you see earlier?","","","","","test","","state","false","stimuli/organized/STATE/USED/Spotpan1.JPG","stimuli/organized/STATE/USED/Spotpan2.JPG","1"
"","879","html-button-response","222","2.0.0","455915","pja7qwucv41","panda","sometimes I had to press the spacebar multiple times for the first part of the memory test","0","Which of these items did you see earlier?","","","","","test","","novel","true","stimuli/organized/Novel pairs (tested)/n04bbandaid.jpg","stimuli/organized/Novel pairs (tested)/n04ayarn.jpg","0"
"","1118","html-button-response","223","2.0.0","457034","pja7qwucv41","panda","sometimes I had to press the spacebar multiple times for the first part of the memory test","0","Which of these items did you see earlier?","","","","","test","","state","true","stimuli/organized/STATE/USED/Scontainer1.JPG","stimuli/organized/STATE/USED/Scontainer2.JPG","0"
"","1547","html-button-response","224","2.0.0","458583","pja7qwucv41","panda","sometimes I had to press the spacebar multiple times for the first part of the memory test","1","Which of these items did you see earlier?","","","","","test","","state","false","stimuli/organized/STATE/USED/Sbox2.jpg","stimuli/organized/STATE/USED/Sbox1.jpg","0"
"","1831","html-button-response","225","2.0.0","460415","pja7qwucv41","panda","sometimes I had to press the spacebar multiple times for the first part of the memory test","0","Which of these items did you see earlier?","","","","","test","","state","false","stimuli/organized/STATE/USED/Schinesefoodbox1.jpg","stimuli/organized/STATE/USED/Schinesefoodbox2.jpg","1"
"","2749","html-button-response","226","2.0.0","463166","pja7qwucv41","panda","sometimes I had to press the spacebar multiple times for the first part of the memory test","1","Which of these items did you see earlier?","","","","","test","","state","true","stimuli/organized/STATE/USED/Sfiretrucktoy1.jpg","stimuli/organized/STATE/USED/Sfiretrucktoy2.jpg","1"
"","1115","html-button-response","227","2.0.0","464281","pja7qwucv41","panda","sometimes I had to press the spacebar multiple times for the first part of the memory test","1","Which of these items did you see earlier?","","","","","test","","novel","true","stimuli/organized/Novel pairs (tested)/n14bgolfball.jpg","stimuli/organized/Novel pairs (tested)/n14acigarette.jpg","1"
"","1349","html-button-response","228","2.0.0","465631","pja7qwucv41","panda","sometimes I had to press the spacebar multiple times for the first part of the memory test","1","Which of these items did you see earlier?","","","","","test","","state","true","stimuli/organized/STATE/USED/Sbelt2.jpg","stimuli/organized/STATE/USED/Sbelt1.jpg","1"
"","1833","html-button-response","229","2.0.0","467465","pja7qwucv41","panda","sometimes I had to press the spacebar multiple times for the first part of the memory test","0","Which of these items did you see earlier?","","","","","test","","state","false","stimuli/organized/STATE/USED/Sdresser1.jpg","stimuli/organized/STATE/USED/Sdresser2.jpg","1"
"","1798","html-button-response","230","2.0.0","469265","pja7qwucv41","panda","sometimes I had to press the spacebar multiple times for the first part of the memory test","0","Which of these items did you see earlier?","","","","","test","","exemplar","true","stimuli/organized/EXEMPLAR/USED/Ecamera2.jpg","stimuli/organized/EXEMPLAR/USED/Ecamera1.jpg","0"
"","949","html-button-response","231","2.0.0","470215","pja7qwucv41","panda","sometimes I had to press the spacebar multiple times for the first part of the memory test","0","Which of these items did you see earlier?","","","","","test","","exemplar","true","stimuli/organized/EXEMPLAR/USED/Echocolatebar1.jpg","stimuli/organized/EXEMPLAR/USED/Echocolatebar2.jpg","0"
"","2951","html-button-response","232","2.0.0","473167","pja7qwucv41","panda","sometimes I had to press the spacebar multiple times for the first part of the memory test","1","Which of these items did you see earlier?","","","","","test","","exemplar","true","stimuli/organized/EXEMPLAR/USED/Ecar1.jpg","stimuli/organized/EXEMPLAR/USED/Ecar2.jpg","1"
"","1117","html-button-response","233","2.0.0","474285","pja7qwucv41","panda","sometimes I had to press the spacebar multiple times for the first part of the memory test","1","Which of these items did you see earlier?","","","","","test","","novel","true","stimuli/organized/Novel pairs (tested)/n20bshelf.jpg","stimuli/organized/Novel pairs (tested)/n20acarseat.jpg","1"
"","1428","html-button-response","234","2.0.0","475714","pja7qwucv41","panda","sometimes I had to press the spacebar multiple times for the first part of the memory test","0","Which of these items did you see earlier?","","","","","test","","state","true","stimuli/organized/STATE/USED/Sbrushes1.jpg","stimuli/organized/STATE/USED/Sbrushes2.jpg","0"
"","2687","html-button-response","235","2.0.0","478402","pja7qwucv41","panda","sometimes I had to press the spacebar multiple times for the first part of the memory test","0","Which of these items did you see earlier?","","","","","test","","exemplar","true","stimuli/organized/EXEMPLAR/USED/Egame1.jpg","stimuli/organized/EXEMPLAR/USED/Egame2.jpg","0"
"","1612","html-button-response","236","2.0.0","480016","pja7qwucv41","panda","sometimes I had to press the spacebar multiple times for the first part of the memory test","1","Which of these items did you see earlier?","","","","","test","","exemplar","true","stimuli/organized/EXEMPLAR/USED/Echisel2.jpg","stimuli/organized/EXEMPLAR/USED/Echisel1.jpg","1"
"","2834","html-button-response","237","2.0.0","482851","pja7qwucv41","panda","sometimes I had to press the spacebar multiple times for the first part of the memory test","0","Which of these items did you see earlier?","","","","","test","","novel","true","stimuli/organized/Novel pairs (tested)/n12bwatch.jpg","stimuli/organized/Novel pairs (tested)/n12atelescope.jpg","0"
"","2545","html-button-response","238","2.0.0","485397","pja7qwucv41","panda","sometimes I had to press the spacebar multiple times for the first part of the memory test","0","Which of these items did you see earlier?","","","","","test","","exemplar","true","stimuli/organized/EXEMPLAR/USED/Eglobe2.jpg","stimuli/organized/EXEMPLAR/USED/Eglobe1.jpg","0"
"","1519","html-button-response","239","2.0.0","486917","pja7qwucv41","panda","sometimes I had to press the spacebar multiple times for the first part of the memory test","0","Which of these items did you see earlier?","","","","","test","","exemplar","true","stimuli/organized/EXEMPLAR/USED/Edispenser1.jpg","stimuli/organized/EXEMPLAR/USED/Edispenser2.jpg","0"
"","1780","html-button-response","240","2.0.0","488698","pja7qwucv41","panda","sometimes I had to press the spacebar multiple times for the first part of the memory test","0","Which of these items did you see earlier?","","","","","test","","state","false","stimuli/organized/STATE/USED/Sdie2.jpg","stimuli/organized/STATE/USED/Sdie1.jpg","1"
"","1698","html-button-response","241","2.0.0","490397","pja7qwucv41","panda","sometimes I had to press the spacebar multiple times for the first part of the memory test","1","Which of these items did you see earlier?","","","","","test","","state","true","stimuli/organized/STATE/USED/Shairbrush1.jpg","stimuli/organized/STATE/USED/Shairbrush2.jpg","1"
"","2302","html-button-response","242","2.0.0","492700","pja7qwucv41","panda","sometimes I had to press the spacebar multiple times for the first part of the memory test","0","Which of these items did you see earlier?","","","","","test","","novel","true","stimuli/organized/Novel pairs (tested)/n11abatteries.jpg","stimuli/organized/Novel pairs (tested)/n11bsock.jpg","0"
"","1349","html-button-response","243","2.0.0","494050","pja7qwucv41","panda","sometimes I had to press the spacebar multiple times for the first part of the memory test","1","Which of these items did you see earlier?","","","","","test","","novel","true","stimuli/organized/Novel pairs (tested)/n15bfootball.jpg","stimuli/organized/Novel pairs (tested)/n15aspiderweb.jpg","1"
"","8532","survey-html-form","244","2.0.0","502584","pja7qwucv41","panda","sometimes I had to press the spacebar multiple times for the first part of the memory test","{""age"":""21"",""gender"":""female"",""memory_experiment_experience"":""yes""}","","","","","","","","","","","",""
"","25863","survey-text","245","2.0.0","528450","pja7qwucv41","panda","sometimes I had to press the spacebar multiple times for the first part of the memory test","{""task_guess"":""Whether we can notice differences between images shown after a certain amount of encoding time.""}","","","","","","","","","","","",""
"","22795","survey-text","246","2.0.0","551247","pja7qwucv41","panda","sometimes I had to press the spacebar multiple times for the first part of the memory test","{""technical_issues_question"":""sometimes I had to press the spacebar multiple times for the first part of the memory test""}","","","","","","","","","","","",""
