"success","rt","trial_type","trial_index","plugin_version","time_elapsed","random_id","participant","technical_issues","response","stimulus","timeout","failed_images","failed_audio","failed_video","trial_phase","is_repeat","test_type","correct","old_image","new_image","correct_position"
"true","138577","fullscreen","0","null","139614","pjr3abynx47","pony","no","","","","","","","","","","","","",""
"","12374","survey-text","1","2.0.0","152031","pjr3abynx47","pony","no","{""participant_id"":""pony""}","","","","","","","","","","","",""
"","6129","html-keyboard-response","2","2.0.0","158162","pjr3abynx47","pony","no"," ","
      <p>In this experiment, a series of objects will be displayed.</p>
      <p>Try to memorize as much as possible about the objects.</p>
      <p>If the image is a <strong> repeat</strong>, press the SPACEBAR.</p>
      <p>Press any key to begin.</p>
    ","","","","","","","","","","",""
"true","","preload","3","2.0.0","159763","pjr3abynx47","pony","no","","","false","[]","[]","[]","","","","","","",""
"","null","html-keyboard-response","4","2.0.0","160765","pjr3abynx47","pony","no","null","<div style=""font-size:60px;"">+</div>","","","","","","","","","","",""
"","2774","image-keyboard-response","5","2.0.0","163775","pjr3abynx47","pony","no"," ","stimuli/organized/STATE/USED/Sbox1.jpg","","","","","memory","false","state","false","","",""
"","null","html-keyboard-response","6","2.0.0","164776","pjr3abynx47","pony","no","null","<div style=""font-size:60px; color:red;"">+</div>","","","","","","","","","","",""
"","null","image-keyboard-response","7","2.0.0","167781","pjr3abynx47","pony","no","null","stimuli/organized/STATE/USED/Shairbrush1.jpg","","","","","memory","false","state","true","","",""
"","null","html-keyboard-response","8","2.0.0","168782","pjr3abynx47","pony","no","null","<div style=""font-size:60px; color:black;"">+</div>","","","","","","","","","","",""
"","1933","image-keyboard-response","9","2.0.0","171785","pjr3abynx47","pony","no"," ","stimuli/organized/EXEMPLAR/USED/Ebell1.jpg","","","","","memory","false","exemplar","false","","",""
"","null","html-keyboard-response","10","2.0.0","172787","pjr3abynx47","pony","no","null","<div style=""font-size:60px; color:red;"">+</div>","","","","","","","","","","",""
"","null","image-keyboard-response","11","2.0.0","175790","pjr3abynx47","pony","no","null","stimuli/organized/EXEMPLAR/USED/Ecar2.jpg","","","","","memory","false","exemplar","true","","",""
"","null","html-keyboard-response","12","2.0.0","176792","pjr3abynx47","pony","no","null","<div style=""font-size:60px; color:black;"">+</div>","","","","","","","","","","",""
"","null","image-keyboard-response","13","2.0.0","179795","pjr3abynx47","pony","no","null","stimuli/organized/STATE/USED/Seggs2.jpg","","","","","memory","false","state","true","","",""
"","null","html-keyboard-response","14","2.0.0","180798","pjr3abynx47","pony","no","null","<div style=""font-size:60px; color:black;"">+</div>","","","","","","","","","","",""
"","null","image-keyboard-response","15","2.0.0","183802","pjr3abynx47","pony","no","null","stimuli/organized/Novel pairs (tested)/n07apotato.jpg","","","","","memory","false","novel","true","","",""
"","null","html-keyboard-response","16","2.0.0","184803","pjr3abynx47","pony","no","null","<div style=""font-size:60px; color:black;"">+</div>","","","","","","","","","","",""
"","null","image-keyboard-response","17","2.0.0","187807","pjr3abynx47","pony","no","null","stimuli/organized/EXEMPLAR/USED/Ecamera2.jpg","","","","","memory","false","exemplar","true","","",""
"","null","html-keyboard-response","18","2.0.0","188810","pjr3abynx47","pony","no","null","<div style=""font-size:60px; color:black;"">+</div>","","","","","","","","","","",""
"","null","image-keyboard-response","19","2.0.0","191813","pjr3abynx47","pony","no","null","stimuli/organized/STATE/USED/Sbottles2.JPG","","","","","memory","false","state","true","","",""
"","null","html-keyboard-response","20","2.0.0","192815","pjr3abynx47","pony","no","null","<div style=""font-size:60px; color:black;"">+</div>","","","","","","","","","","",""
"","null","image-keyboard-response","21","2.0.0","195818","pjr3abynx47","pony","no","null","stimuli/organized/STATE/USED/Sbreadbox2.JPG","","","","","memory","false","state","true","","",""
"","null","html-keyboard-response","22","2.0.0","196819","pjr3abynx47","pony","no","null","<div style=""font-size:60px; color:black;"">+</div>","","","","","","","","","","",""
"","1683","image-keyboard-response","23","2.0.0","199822","pjr3abynx47","pony","no"," ","stimuli/organized/EXEMPLAR/USED/Econe2.jpg","","","","","memory","false","exemplar","false","","",""
"","null","html-keyboard-response","24","2.0.0","200823","pjr3abynx47","pony","no","null","<div style=""font-size:60px; color:red;"">+</div>","","","","","","","","","","",""
"","null","image-keyboard-response","25","2.0.0","203827","pjr3abynx47","pony","no","null","stimuli/organized/STATE/USED/Sflask1.jpg","","","","","memory","false","state","true","","",""
"","null","html-keyboard-response","26","2.0.0","204828","pjr3abynx47","pony","no","null","<div style=""font-size:60px; color:black;"">+</div>","","","","","","","","","","",""
"","null","image-keyboard-response","27","2.0.0","207830","pjr3abynx47","pony","no","null","stimuli/organized/EXEMPLAR/USED/Ecabinet1.jpg","","","","","memory","false","exemplar","true","","",""
"","null","html-keyboard-response","28","2.0.0","208832","pjr3abynx47","pony","no","null","<div style=""font-size:60px; color:black;"">+</div>","","","","","","","","","","",""
"","null","image-keyboard-response","29","2.0.0","211837","pjr3abynx47","pony","no","null","stimuli/organized/EXEMPLAR/USED/Egame2.jpg","","","","","memory","false","exemplar","true","","",""
"","null","html-keyboard-response","30","2.0.0","212839","pjr3abynx47","pony","no","null","<div style=""font-size:60px; color:black;"">+</div>","","","","","","","","","","",""
"","null","image-keyboard-response","31","2.0.0","215843","pjr3abynx47","pony","no","null","stimuli/organized/EXEMPLAR/USED/Eglobe1.jpg","","","","","memory","false","exemplar","true","","",""
"","null","html-keyboard-response","32","2.0.0","216844","pjr3abynx47","pony","no","null","<div style=""font-size:60px; color:black;"">+</div>","","","","","","","","","","",""
"","null","image-keyboard-response","33","2.0.0","219848","pjr3abynx47","pony","no","null","stimuli/organized/STATE/USED/Sgrinder2.jpg","","","","","memory","false","state","true","","",""
"","null","html-keyboard-response","34","2.0.0","220850","pjr3abynx47","pony","no","null","<div style=""font-size:60px; color:black;"">+</div>","","","","","","","","","","",""
"","null","image-keyboard-response","35","2.0.0","223855","pjr3abynx47","pony","no","null","stimuli/organized/EXEMPLAR/USED/Ebicycle2.jpg","","","","","memory","false","exemplar","true","","",""
"","null","html-keyboard-response","36","2.0.0","224856","pjr3abynx47","pony","no","null","<div style=""font-size:60px; color:black;"">+</div>","","","","","","","","","","",""
"","null","image-keyboard-response","37","2.0.0","227859","pjr3abynx47","pony","no","null","stimuli/organized/STATE/USED/Sbabytoy2.JPG","","","","","memory","false","state","true","","",""
"","null","html-keyboard-response","38","2.0.0","228862","pjr3abynx47","pony","no","null","<div style=""font-size:60px; color:black;"">+</div>","","","","","","","","","","",""
"","2683","image-keyboard-response","39","2.0.0","231865","pjr3abynx47","pony","no"," ","stimuli/organized/EXEMPLAR/USED/Edispenser2.jpg","","","","","memory","false","exemplar","false","","",""
"","null","html-keyboard-response","40","2.0.0","232867","pjr3abynx47","pony","no","null","<div style=""font-size:60px; color:red;"">+</div>","","","","","","","","","","",""
"","null","image-keyboard-response","41","2.0.0","235870","pjr3abynx47","pony","no","null","stimuli/organized/STATE/USED/Sjuiceglass2.JPG","","","","","memory","false","state","true","","",""
"","null","html-keyboard-response","42","2.0.0","236872","pjr3abynx47","pony","no","null","<div style=""font-size:60px; color:black;"">+</div>","","","","","","","","","","",""
"","2316","image-keyboard-response","43","2.0.0","239875","pjr3abynx47","pony","no"," ","stimuli/organized/STATE/USED/Scrayons2.jpg","","","","","memory","false","state","false","","",""
"","null","html-keyboard-response","44","2.0.0","240876","pjr3abynx47","pony","no","null","<div style=""font-size:60px; color:red;"">+</div>","","","","","","","","","","",""
"","null","image-keyboard-response","45","2.0.0","243880","pjr3abynx47","pony","no","null","stimuli/organized/STATE/USED/Sgiftbox1.jpg","","","","","memory","false","state","true","","",""
"","null","html-keyboard-response","46","2.0.0","244881","pjr3abynx47","pony","no","null","<div style=""font-size:60px; color:black;"">+</div>","","","","","","","","","","",""
"","null","image-keyboard-response","47","2.0.0","247885","pjr3abynx47","pony","no","null","stimuli/organized/STATE/USED/Scontainer2.JPG","","","","","memory","false","state","true","","",""
"","null","html-keyboard-response","48","2.0.0","248886","pjr3abynx47","pony","no","null","<div style=""font-size:60px; color:black;"">+</div>","","","","","","","","","","",""
"","null","image-keyboard-response","49","2.0.0","251889","pjr3abynx47","pony","no","null","stimuli/organized/STATE/USED/Sbureau1.JPG","","","","","memory","false","state","true","","",""
"","null","html-keyboard-response","50","2.0.0","252890","pjr3abynx47","pony","no","null","<div style=""font-size:60px; color:black;"">+</div>","","","","","","","","","","",""
"","null","image-keyboard-response","51","2.0.0","255894","pjr3abynx47","pony","no","null","stimuli/organized/Novel pairs (tested)/n09bsaddle.jpg","","","","","memory","false","novel","true","","",""
"","null","html-keyboard-response","52","2.0.0","256895","pjr3abynx47","pony","no","null","<div style=""font-size:60px; color:black;"">+</div>","","","","","","","","","","",""
"","null","image-keyboard-response","53","2.0.0","259898","pjr3abynx47","pony","no","null","stimuli/organized/EXEMPLAR/USED/Egoggles1.jpg","","","","","memory","false","exemplar","true","","",""
"","null","html-keyboard-response","54","2.0.0","260900","pjr3abynx47","pony","no","null","<div style=""font-size:60px; color:black;"">+</div>","","","","","","","","","","",""
"","null","image-keyboard-response","55","2.0.0","263903","pjr3abynx47","pony","no","null","stimuli/organized/STATE/USED/Sapplesgreenbasket2.jpg","","","","","memory","false","state","true","","",""
"","null","html-keyboard-response","56","2.0.0","264904","pjr3abynx47","pony","no","null","<div style=""font-size:60px; color:black;"">+</div>","","","","","","","","","","",""
"","null","image-keyboard-response","57","2.0.0","267907","pjr3abynx47","pony","no","null","stimuli/organized/Novel pairs (tested)/n12atelescope.jpg","","","","","memory","false","novel","true","","",""
"","null","html-keyboard-response","58","2.0.0","268909","pjr3abynx47","pony","no","null","<div style=""font-size:60px; color:black;"">+</div>","","","","","","","","","","",""
"","null","image-keyboard-response","59","2.0.0","271912","pjr3abynx47","pony","no","null","stimuli/organized/STATE/USED/Spie1.JPG","","","","","memory","false","state","true","","",""
"","null","html-keyboard-response","60","2.0.0","272913","pjr3abynx47","pony","no","null","<div style=""font-size:60px; color:black;"">+</div>","","","","","","","","","","",""
"","null","image-keyboard-response","61","2.0.0","275916","pjr3abynx47","pony","no","null","stimuli/organized/Novel pairs (tested)/n13ablueberries.jpg","","","","","memory","false","novel","true","","",""
"","null","html-keyboard-response","62","2.0.0","276917","pjr3abynx47","pony","no","null","<div style=""font-size:60px; color:black;"">+</div>","","","","","","","","","","",""
"","null","image-keyboard-response","63","2.0.0","279919","pjr3abynx47","pony","no","null","stimuli/organized/STATE/USED/Sdresser1.jpg","","","","","memory","false","state","true","","",""
"","null","html-keyboard-response","64","2.0.0","280921","pjr3abynx47","pony","no","null","<div style=""font-size:60px; color:black;"">+</div>","","","","","","","","","","",""
"","null","image-keyboard-response","65","2.0.0","283925","pjr3abynx47","pony","no","null","stimuli/organized/STATE/USED/Schinesefoodbox2.jpg","","","","","memory","false","state","true","","",""
"","null","html-keyboard-response","66","2.0.0","284926","pjr3abynx47","pony","no","null","<div style=""font-size:60px; color:black;"">+</div>","","","","","","","","","","",""
"","null","image-keyboard-response","67","2.0.0","287928","pjr3abynx47","pony","no","null","stimuli/organized/STATE/USED/Seggs2.jpg","","","","","memory","true","state","false","","",""
"","null","html-keyboard-response","68","2.0.0","288929","pjr3abynx47","pony","no","null","<div style=""font-size:60px; color:black;"">+</div>","","","","","","","","","","",""
"","null","image-keyboard-response","69","2.0.0","291932","pjr3abynx47","pony","no","null","stimuli/organized/EXEMPLAR/USED/Echocolatebar2.jpg","","","","","memory","false","exemplar","true","","",""
"","null","html-keyboard-response","70","2.0.0","292934","pjr3abynx47","pony","no","null","<div style=""font-size:60px; color:black;"">+</div>","","","","","","","","","","",""
"","null","image-keyboard-response","71","2.0.0","295938","pjr3abynx47","pony","no","null","stimuli/organized/STATE/USED/Slaptop2.JPG","","","","","memory","false","state","true","","",""
"","null","html-keyboard-response","72","2.0.0","296939","pjr3abynx47","pony","no","null","<div style=""font-size:60px; color:black;"">+</div>","","","","","","","","","","",""
"","1812","image-keyboard-response","73","2.0.0","299942","pjr3abynx47","pony","no"," ","stimuli/organized/Novel pairs (tested)/n14acigarette.jpg","","","","","memory","false","novel","false","","",""
"","null","html-keyboard-response","74","2.0.0","300943","pjr3abynx47","pony","no","null","<div style=""font-size:60px; color:red;"">+</div>","","","","","","","","","","",""
"","null","image-keyboard-response","75","2.0.0","303946","pjr3abynx47","pony","no","null","stimuli/organized/Novel pairs (tested)/n01bcoin.jpg","","","","","memory","false","novel","true","","",""
"","null","html-keyboard-response","76","2.0.0","304947","pjr3abynx47","pony","no","null","<div style=""font-size:60px; color:black;"">+</div>","","","","","","","","","","",""
"","null","image-keyboard-response","77","2.0.0","307951","pjr3abynx47","pony","no","null","stimuli/organized/STATE/USED/Sscanner1.JPG","","","","","memory","false","state","true","","",""
"","null","html-keyboard-response","78","2.0.0","308952","pjr3abynx47","pony","no","null","<div style=""font-size:60px; color:black;"">+</div>","","","","","","","","","","",""
"","1815","image-keyboard-response","79","2.0.0","311958","pjr3abynx47","pony","no"," ","stimuli/organized/Novel pairs (tested)/n15bfootball.jpg","","","","","memory","false","novel","false","","",""
"","null","html-keyboard-response","80","2.0.0","312960","pjr3abynx47","pony","no","null","<div style=""font-size:60px; color:red;"">+</div>","","","","","","","","","","",""
"","null","image-keyboard-response","81","2.0.0","315963","pjr3abynx47","pony","no","null","stimuli/organized/STATE/USED/Sdonut1.jpg","","","","","memory","false","state","true","","",""
"","null","html-keyboard-response","82","2.0.0","316964","pjr3abynx47","pony","no","null","<div style=""font-size:60px; color:black;"">+</div>","","","","","","","","","","",""
"","null","image-keyboard-response","83","2.0.0","319968","pjr3abynx47","pony","no","null","stimuli/organized/STATE/USED/Spotpan2.JPG","","","","","memory","false","state","true","","",""
"","null","html-keyboard-response","84","2.0.0","320969","pjr3abynx47","pony","no","null","<div style=""font-size:60px; color:black;"">+</div>","","","","","","","","","","",""
"","2000","image-keyboard-response","85","2.0.0","323973","pjr3abynx47","pony","no"," ","stimuli/organized/Novel pairs (tested)/n03acamel.jpg","","","","","memory","false","novel","false","","",""
"","null","html-keyboard-response","86","2.0.0","324975","pjr3abynx47","pony","no","null","<div style=""font-size:60px; color:red;"">+</div>","","","","","","","","","","",""
"","2746","image-keyboard-response","87","2.0.0","327978","pjr3abynx47","pony","no"," ","stimuli/organized/Novel pairs (tested)/n18bsnail.jpg","","","","","memory","false","novel","false","","",""
"","null","html-keyboard-response","88","2.0.0","328980","pjr3abynx47","pony","no","null","<div style=""font-size:60px; color:red;"">+</div>","","","","","","","","","","",""
"","null","image-keyboard-response","89","2.0.0","331984","pjr3abynx47","pony","no","null","stimuli/organized/STATE/USED/Sabacus1.jpg","","","","","memory","false","state","true","","",""
"","null","html-keyboard-response","90","2.0.0","332986","pjr3abynx47","pony","no","null","<div style=""font-size:60px; color:black;"">+</div>","","","","","","","","","","",""
"","null","image-keyboard-response","91","2.0.0","335989","pjr3abynx47","pony","no","null","stimuli/organized/EXEMPLAR/USED/Echisel1.jpg","","","","","memory","false","exemplar","true","","",""
"","null","html-keyboard-response","92","2.0.0","336991","pjr3abynx47","pony","no","null","<div style=""font-size:60px; color:black;"">+</div>","","","","","","","","","","",""
"","null","image-keyboard-response","93","2.0.0","339994","pjr3abynx47","pony","no","null","stimuli/organized/STATE/USED/Sphone1.JPG","","","","","memory","false","state","true","","",""
"","null","html-keyboard-response","94","2.0.0","340996","pjr3abynx47","pony","no","null","<div style=""font-size:60px; color:black;"">+</div>","","","","","","","","","","",""
"","null","image-keyboard-response","95","2.0.0","343998","pjr3abynx47","pony","no","null","stimuli/organized/Novel pairs (tested)/n04bbandaid.jpg","","","","","memory","false","novel","true","","",""
"","null","html-keyboard-response","96","2.0.0","344999","pjr3abynx47","pony","no","null","<div style=""font-size:60px; color:black;"">+</div>","","","","","","","","","","",""
"","null","image-keyboard-response","97","2.0.0","348002","pjr3abynx47","pony","no","null","stimuli/organized/Novel pairs (tested)/n19apickle.jpg","","","","","memory","false","novel","true","","",""
"","null","html-keyboard-response","98","2.0.0","349004","pjr3abynx47","pony","no","null","<div style=""font-size:60px; color:black;"">+</div>","","","","","","","","","","",""
"","null","image-keyboard-response","99","2.0.0","352008","pjr3abynx47","pony","no","null","stimuli/organized/EXEMPLAR/USED/Ebracelet1.jpg","","","","","memory","false","exemplar","true","","",""
"","null","html-keyboard-response","100","2.0.0","353010","pjr3abynx47","pony","no","null","<div style=""font-size:60px; color:black;"">+</div>","","","","","","","","","","",""
"","null","image-keyboard-response","101","2.0.0","356014","pjr3abynx47","pony","no","null","stimuli/organized/EXEMPLAR/USED/Egrapes2.jpg","","","","","memory","false","exemplar","true","","",""
"","null","html-keyboard-response","102","2.0.0","357015","pjr3abynx47","pony","no","null","<div style=""font-size:60px; color:black;"">+</div>","","","","","","","","","","",""
"","null","image-keyboard-response","103","2.0.0","360019","pjr3abynx47","pony","no","null","stimuli/organized/STATE/USED/Sbrushes1.jpg","","","","","memory","false","state","true","","",""
"","null","html-keyboard-response","104","2.0.0","361020","pjr3abynx47","pony","no","null","<div style=""font-size:60px; color:black;"">+</div>","","","","","","","","","","",""
"","null","image-keyboard-response","105","2.0.0","364024","pjr3abynx47","pony","no","null","stimuli/organized/EXEMPLAR/USED/Efan1.jpg","","","","","memory","false","exemplar","true","","",""
"","null","html-keyboard-response","106","2.0.0","365026","pjr3abynx47","pony","no","null","<div style=""font-size:60px; color:black;"">+</div>","","","","","","","","","","",""
"","null","image-keyboard-response","107","2.0.0","368028","pjr3abynx47","pony","no","null","stimuli/organized/Novel pairs (tested)/n10awindmill.jpg","","","","","memory","false","novel","true","","",""
"","null","html-keyboard-response","108","2.0.0","369029","pjr3abynx47","pony","no","null","<div style=""font-size:60px; color:black;"">+</div>","","","","","","","","","","",""
"","null","image-keyboard-response","109","2.0.0","372032","pjr3abynx47","pony","no","null","stimuli/organized/EXEMPLAR/USED/Ebread1.jpg","","","","","memory","false","exemplar","true","","",""
"","null","html-keyboard-response","110","2.0.0","373035","pjr3abynx47","pony","no","null","<div style=""font-size:60px; color:black;"">+</div>","","","","","","","","","","",""
"","null","image-keyboard-response","111","2.0.0","376039","pjr3abynx47","pony","no","null","stimuli/organized/STATE/USED/Scoffeemaker1.JPG","","","","","memory","false","state","true","","",""
"","null","html-keyboard-response","112","2.0.0","377040","pjr3abynx47","pony","no","null","<div style=""font-size:60px; color:black;"">+</div>","","","","","","","","","","",""
"","null","image-keyboard-response","113","2.0.0","380043","pjr3abynx47","pony","no","null","stimuli/organized/Novel pairs (tested)/n06acane.jpg","","","","","memory","false","novel","true","","",""
"","null","html-keyboard-response","114","2.0.0","381044","pjr3abynx47","pony","no","null","<div style=""font-size:60px; color:black;"">+</div>","","","","","","","","","","",""
"","null","image-keyboard-response","115","2.0.0","384047","pjr3abynx47","pony","no","null","stimuli/organized/EXEMPLAR/USED/Eframe2.jpg","","","","","memory","false","exemplar","true","","",""
"","null","html-keyboard-response","116","2.0.0","385048","pjr3abynx47","pony","no","null","<div style=""font-size:60px; color:black;"">+</div>","","","","","","","","","","",""
"","null","image-keyboard-response","117","2.0.0","388051","pjr3abynx47","pony","no","null","stimuli/organized/STATE/USED/Scookies2.JPG","","","","","memory","false","state","true","","",""
"","null","html-keyboard-response","118","2.0.0","389052","pjr3abynx47","pony","no","null","<div style=""font-size:60px; color:black;"">+</div>","","","","","","","","","","",""
"","1729","image-keyboard-response","119","2.0.0","392055","pjr3abynx47","pony","no"," ","stimuli/organized/EXEMPLAR/USED/Efeather1.jpg","","","","","memory","false","exemplar","false","","",""
"","null","html-keyboard-response","120","2.0.0","393057","pjr3abynx47","pony","no","null","<div style=""font-size:60px; color:red;"">+</div>","","","","","","","","","","",""
"","null","image-keyboard-response","121","2.0.0","396061","pjr3abynx47","pony","no","null","stimuli/organized/Novel pairs (tested)/n08aoven.jpg","","","","","memory","false","novel","true","","",""
"","null","html-keyboard-response","122","2.0.0","397062","pjr3abynx47","pony","no","null","<div style=""font-size:60px; color:black;"">+</div>","","","","","","","","","","",""
"","null","image-keyboard-response","123","2.0.0","400064","pjr3abynx47","pony","no","null","stimuli/organized/STATE/USED/Sdie2.jpg","","","","","memory","false","state","true","","",""
"","null","html-keyboard-response","124","2.0.0","401066","pjr3abynx47","pony","no","null","<div style=""font-size:60px; color:black;"">+</div>","","","","","","","","","","",""
"","null","image-keyboard-response","125","2.0.0","404069","pjr3abynx47","pony","no","null","stimuli/organized/STATE/USED/Sgiftbag2.jpg","","","","","memory","false","state","true","","",""
"","null","html-keyboard-response","126","2.0.0","405071","pjr3abynx47","pony","no","null","<div style=""font-size:60px; color:black;"">+</div>","","","","","","","","","","",""
"","null","image-keyboard-response","127","2.0.0","408073","pjr3abynx47","pony","no","null","stimuli/organized/Novel pairs (tested)/n16bhammer.jpg","","","","","memory","false","novel","true","","",""
"","null","html-keyboard-response","128","2.0.0","409075","pjr3abynx47","pony","no","null","<div style=""font-size:60px; color:black;"">+</div>","","","","","","","","","","",""
"","null","image-keyboard-response","129","2.0.0","412078","pjr3abynx47","pony","no","null","stimuli/organized/STATE/USED/Sbriefcase1.jpg","","","","","memory","false","state","true","","",""
"","null","html-keyboard-response","130","2.0.0","413079","pjr3abynx47","pony","no","null","<div style=""font-size:60px; color:black;"">+</div>","","","","","","","","","","",""
"","1420","image-keyboard-response","131","2.0.0","416082","pjr3abynx47","pony","no"," ","stimuli/organized/Novel pairs (tested)/n02bsafetypin.jpg","","","","","memory","false","novel","false","","",""
"","null","html-keyboard-response","132","2.0.0","417083","pjr3abynx47","pony","no","null","<div style=""font-size:60px; color:red;"">+</div>","","","","","","","","","","",""
"","960","image-keyboard-response","133","2.0.0","420087","pjr3abynx47","pony","no"," ","stimuli/organized/STATE/USED/Sfiretrucktoy2.jpg","","","","","memory","false","state","false","","",""
"","null","html-keyboard-response","134","2.0.0","421089","pjr3abynx47","pony","no","null","<div style=""font-size:60px; color:red;"">+</div>","","","","","","","","","","",""
"","null","image-keyboard-response","135","2.0.0","424093","pjr3abynx47","pony","no","null","stimuli/organized/STATE/USED/Sdrum2.jpg","","","","","memory","false","state","true","","",""
"","null","html-keyboard-response","136","2.0.0","425094","pjr3abynx47","pony","no","null","<div style=""font-size:60px; color:black;"">+</div>","","","","","","","","","","",""
"","1188","image-keyboard-response","137","2.0.0","428097","pjr3abynx47","pony","no"," ","stimuli/organized/STATE/USED/Sbelt1.jpg","","","","","memory","false","state","false","","",""
"","null","html-keyboard-response","138","2.0.0","429099","pjr3abynx47","pony","no","null","<div style=""font-size:60px; color:red;"">+</div>","","","","","","","","","","",""
"","null","image-keyboard-response","139","2.0.0","432102","pjr3abynx47","pony","no","null","stimuli/organized/STATE/USED/Sscissors1.JPG","","","","","memory","false","state","true","","",""
"","null","html-keyboard-response","140","2.0.0","433104","pjr3abynx47","pony","no","null","<div style=""font-size:60px; color:black;"">+</div>","","","","","","","","","","",""
"","null","image-keyboard-response","141","2.0.0","436107","pjr3abynx47","pony","no","null","stimuli/organized/EXEMPLAR/USED/Ebasket2.jpg","","","","","memory","false","exemplar","true","","",""
"","null","html-keyboard-response","142","2.0.0","437108","pjr3abynx47","pony","no","null","<div style=""font-size:60px; color:black;"">+</div>","","","","","","","","","","",""
"","null","image-keyboard-response","143","2.0.0","440109","pjr3abynx47","pony","no","null","stimuli/organized/STATE/USED/Shairbrush1.jpg","","","","","memory","true","state","false","","",""
"","null","html-keyboard-response","144","2.0.0","441110","pjr3abynx47","pony","no","null","<div style=""font-size:60px; color:black;"">+</div>","","","","","","","","","","",""
"","null","image-keyboard-response","145","2.0.0","444114","pjr3abynx47","pony","no","null","stimuli/organized/STATE/USED/Sdryer1.jpg","","","","","memory","false","state","true","","",""
"","null","html-keyboard-response","146","2.0.0","445115","pjr3abynx47","pony","no","null","<div style=""font-size:60px; color:black;"">+</div>","","","","","","","","","","",""
"","null","image-keyboard-response","147","2.0.0","448123","pjr3abynx47","pony","no","null","stimuli/organized/Novel pairs (tested)/n02bsafetypin.jpg","","","","","memory","true","novel","false","","",""
"","null","html-keyboard-response","148","2.0.0","449125","pjr3abynx47","pony","no","null","<div style=""font-size:60px; color:black;"">+</div>","","","","","","","","","","",""
"","2643","image-keyboard-response","149","2.0.0","452130","pjr3abynx47","pony","no"," ","stimuli/organized/STATE/USED/Sbooks2.JPG","","","","","memory","false","state","false","","",""
"","null","html-keyboard-response","150","2.0.0","453131","pjr3abynx47","pony","no","null","<div style=""font-size:60px; color:red;"">+</div>","","","","","","","","","","",""
"","null","image-keyboard-response","151","2.0.0","456135","pjr3abynx47","pony","no","null","stimuli/organized/Novel pairs (tested)/n05bcactus.jpg","","","","","memory","false","novel","true","","",""
"","null","html-keyboard-response","152","2.0.0","457136","pjr3abynx47","pony","no","null","<div style=""font-size:60px; color:black;"">+</div>","","","","","","","","","","",""
"","null","image-keyboard-response","153","2.0.0","460138","pjr3abynx47","pony","no","null","stimuli/organized/STATE/USED/Sbabytoy2.JPG","","","","","memory","true","state","false","","",""
"","null","html-keyboard-response","154","2.0.0","461139","pjr3abynx47","pony","no","null","<div style=""font-size:60px; color:black;"">+</div>","","","","","","","","","","",""
"","null","image-keyboard-response","155","2.0.0","464142","pjr3abynx47","pony","no","null","stimuli/organized/Novel pairs (tested)/n17avendingmachine.jpg","","","","","memory","false","novel","true","","",""
"","null","html-keyboard-response","156","2.0.0","465144","pjr3abynx47","pony","no","null","<div style=""font-size:60px; color:black;"">+</div>","","","","","","","","","","",""
"","null","image-keyboard-response","157","2.0.0","468148","pjr3abynx47","pony","no","null","stimuli/organized/EXEMPLAR/USED/Ecalculator1.jpg","","","","","memory","false","exemplar","true","","",""
"","null","html-keyboard-response","158","2.0.0","469150","pjr3abynx47","pony","no","null","<div style=""font-size:60px; color:black;"">+</div>","","","","","","","","","","",""
"","813","image-keyboard-response","159","2.0.0","472151","pjr3abynx47","pony","no"," ","stimuli/organized/STATE/USED/Sbelt1.jpg","","","","","memory","true","state","true","","",""
"","null","html-keyboard-response","160","2.0.0","473153","pjr3abynx47","pony","no","null","<div style=""font-size:60px; color:green;"">+</div>","","","","","","","","","","",""
"","null","image-keyboard-response","161","2.0.0","476157","pjr3abynx47","pony","no","null","stimuli/organized/STATE/USED/Sdishes2.JPG","","","","","memory","false","state","true","","",""
"","null","html-keyboard-response","162","2.0.0","477159","pjr3abynx47","pony","no","null","<div style=""font-size:60px; color:black;"">+</div>","","","","","","","","","","",""
"","664","image-keyboard-response","163","2.0.0","480162","pjr3abynx47","pony","no"," ","stimuli/organized/Novel pairs (tested)/n20bshelf.jpg","","","","","memory","false","novel","false","","",""
"","null","html-keyboard-response","164","2.0.0","481163","pjr3abynx47","pony","no","null","<div style=""font-size:60px; color:red;"">+</div>","","","","","","","","","","",""
"","null","image-keyboard-response","165","2.0.0","484166","pjr3abynx47","pony","no","null","stimuli/organized/Novel pairs (tested)/n11abatteries.jpg","","","","","memory","false","novel","true","","",""
"","4812","html-button-response","166","2.0.0","488982","pjr3abynx47","pony","no","0","<p>You have completed the study phase.</p><p>Take a short break. Press the button below when you are ready to continue.</p>","","","","","","","","","","",""
"","6396","html-keyboard-response","167","2.0.0","495379","pjr3abynx47","pony","no"," ","<p>You will now be shown pairs of images.</p><p>Select the image you remember seeing during the study phase.</p><p>Focus on accuracy, not speed.</p><p>Press any key to begin.</p>","","","","","","","","","","",""
"","1669","html-button-response","168","2.0.0","497049","pjr3abynx47","pony","no","0","Which of these items did you see earlier?","","","","","test","","novel","false","stimuli/organized/Novel pairs (tested)/n05bcactus.jpg","stimuli/organized/Novel pairs (tested)/n05abarrel.jpg","1"
"","1272","html-button-response","169","2.0.0","498322","pjr3abynx47","pony","no","0","Which of these items did you see earlier?","","","","","test","","state","true","stimuli/organized/STATE/USED/Spotpan2.JPG","stimuli/organized/STATE/USED/Spotpan1.JPG","0"
"","1116","html-button-response","170","2.0.0","499439","pjr3abynx47","pony","no","0","Which of these items did you see earlier?","","","","","test","","state","true","stimuli/organized/STATE/USED/Sdie2.jpg","stimuli/organized/STATE/USED/Sdie1.jpg","0"
"","997","html-button-response","171","2.0.0","500437","pjr3abynx47","pony","no","1","Which of these items did you see earlier?","","","","","test","","state","true","stimuli/organized/STATE/USED/Sjuiceglass2.JPG","stimuli/organized/STATE/USED/Sjuiceglass1.JPG","1"
"","2543","html-button-response","172","2.0.0","502981","pjr3abynx47","pony","no","0","Which of these items did you see earlier?","","","","","test","","state","false","stimuli/organized/STATE/USED/Slaptop2.JPG","stimuli/organized/STATE/USED/Slaptop1.JPG","1"
"","987","html-button-response","173","2.0.0","503969","pjr3abynx47","pony","no","1","Which of these items did you see earlier?","","","","","test","","state","true","stimuli/organized/STATE/USED/Sbrushes1.jpg","stimuli/organized/STATE/USED/Sbrushes2.jpg","1"
"","1900","html-button-response","174","2.0.0","505870","pjr3abynx47","pony","no","1","Which of these items did you see earlier?","","","","","test","","exemplar","false","stimuli/organized/EXEMPLAR/USED/Ecamera2.jpg","stimuli/organized/EXEMPLAR/USED/Ecamera1.jpg","0"
"","1788","html-button-response","175","2.0.0","507659","pjr3abynx47","pony","no","1","Which of these items did you see earlier?","","","","","test","","exemplar","false","stimuli/organized/EXEMPLAR/USED/Ebicycle2.jpg","stimuli/organized/EXEMPLAR/USED/Ebicycle1.jpg","0"
"","1089","html-button-response","176","2.0.0","508749","pjr3abynx47","pony","no","1","Which of these items did you see earlier?","","","","","test","","novel","true","stimuli/organized/Novel pairs (tested)/n15bfootball.jpg","stimuli/organized/Novel pairs (tested)/n15aspiderweb.jpg","1"
"","12547","html-button-response","177","2.0.0","521297","pjr3abynx47","pony","no","0","Which of these items did you see earlier?","","","","","test","","state","true","stimuli/organized/STATE/USED/Seggs2.jpg","stimuli/organized/STATE/USED/Seggs1.jpg","0"
"","3449","html-button-response","178","2.0.0","524747","pjr3abynx47","pony","no","1","Which of these items did you see earlier?","","","","","test","","state","true","stimuli/organized/STATE/USED/Sdresser1.jpg","stimuli/organized/STATE/USED/Sdresser2.jpg","1"
"","1256","html-button-response","179","2.0.0","526005","pjr3abynx47","pony","no","1","Which of these items did you see earlier?","","","","","test","","exemplar","true","stimuli/organized/EXEMPLAR/USED/Edispenser2.jpg","stimuli/organized/EXEMPLAR/USED/Edispenser1.jpg","1"
"","1027","html-button-response","180","2.0.0","527032","pjr3abynx47","pony","no","1","Which of these items did you see earlier?","","","","","test","","exemplar","true","stimuli/organized/EXEMPLAR/USED/Efan1.jpg","stimuli/organized/EXEMPLAR/USED/Efan2.jpg","1"
"","2876","html-button-response","181","2.0.0","529910","pjr3abynx47","pony","no","1","Which of these items did you see earlier?","","","","","test","","state","true","stimuli/organized/STATE/USED/Sbox1.jpg","stimuli/organized/STATE/USED/Sbox2.jpg","1"
"","1632","html-button-response","182","2.0.0","531542","pjr3abynx47","pony","no","0","Which of these items did you see earlier?","","","","","test","","state","true","stimuli/organized/STATE/USED/Sdrum2.jpg","stimuli/organized/STATE/USED/Sdrum1.jpg","0"
"","3334","html-button-response","183","2.0.0","534877","pjr3abynx47","pony","no","1","Which of these items did you see earlier?","","","","","test","","novel","true","stimuli/organized/Novel pairs (tested)/n10awindmill.jpg","stimuli/organized/Novel pairs (tested)/n10bturkey.jpg","1"
"","1594","html-button-response","184","2.0.0","536472","pjr3abynx47","pony","no","1","Which of these items did you see earlier?","","","","","test","","novel","true","stimuli/organized/Novel pairs (tested)/n18bsnail.jpg","stimuli/organized/Novel pairs (tested)/n18apretzel.jpg","1"
"","1684","html-button-response","185","2.0.0","538157","pjr3abynx47","pony","no","1","Which of these items did you see earlier?","","","","","test","","exemplar","false","stimuli/organized/EXEMPLAR/USED/Ecalculator1.jpg","stimuli/organized/EXEMPLAR/USED/Ecalculator2.jpg","0"
"","1446","html-button-response","186","2.0.0","539604","pjr3abynx47","pony","no","0","Which of these items did you see earlier?","","","","","test","","state","true","stimuli/organized/STATE/USED/Sabacus1.jpg","stimuli/organized/STATE/USED/Sabacus2.jpg","0"
"","1020","html-button-response","187","2.0.0","540625","pjr3abynx47","pony","no","0","Which of these items did you see earlier?","","","","","test","","novel","false","stimuli/organized/Novel pairs (tested)/n06acane.jpg","stimuli/organized/Novel pairs (tested)/n06blipstick.jpg","1"
"","1821","html-button-response","188","2.0.0","542447","pjr3abynx47","pony","no","0","Which of these items did you see earlier?","","","","","test","","novel","false","stimuli/organized/Novel pairs (tested)/n04bbandaid.jpg","stimuli/organized/Novel pairs (tested)/n04ayarn.jpg","1"
"","2662","html-button-response","189","2.0.0","545109","pjr3abynx47","pony","no","1","Which of these items did you see earlier?","","","","","test","","exemplar","false","stimuli/organized/EXEMPLAR/USED/Echocolatebar2.jpg","stimuli/organized/EXEMPLAR/USED/Echocolatebar1.jpg","0"
"","2524","html-button-response","190","2.0.0","547634","pjr3abynx47","pony","no","0","Which of these items did you see earlier?","","","","","test","","exemplar","false","stimuli/organized/EXEMPLAR/USED/Egoggles1.jpg","stimuli/organized/EXEMPLAR/USED/Egoggles2.jpg","1"
"","1504","html-button-response","191","2.0.0","549138","pjr3abynx47","pony","no","0","Which of these items did you see earlier?","","","","","test","","state","true","stimuli/organized/STATE/USED/Sgrinder2.jpg","stimuli/organized/STATE/USED/Sgrinder1.jpg","0"
"","2986","html-button-response","192","2.0.0","552125","pjr3abynx47","pony","no","0","Which of these items did you see earlier?","","","","","test","","state","true","stimuli/organized/STATE/USED/Sphone1.JPG","stimuli/organized/STATE/USED/Sphone2.JPG","0"
"","2137","html-button-response","193","2.0.0","554264","pjr3abynx47","pony","no","1","Which of these items did you see earlier?","","","","","test","","state","true","stimuli/organized/STATE/USED/Scrayons2.jpg","stimuli/organized/STATE/USED/Scrayons1.jpg","1"
"","2351","html-button-response","194","2.0.0","556616","pjr3abynx47","pony","no","0","Which of these items did you see earlier?","","","","","test","","state","false","stimuli/organized/STATE/USED/Scoffeemaker1.JPG","stimuli/organized/STATE/USED/Scoffeemaker2.JPG","1"
"","1325","html-button-response","195","2.0.0","557943","pjr3abynx47","pony","no","1","Which of these items did you see earlier?","","","","","test","","state","false","stimuli/organized/STATE/USED/Schinesefoodbox2.jpg","stimuli/organized/STATE/USED/Schinesefoodbox1.jpg","0"
"","10467","html-button-response","196","2.0.0","568411","pjr3abynx47","pony","no","0","Which of these items did you see earlier?","","","","","test","","novel","true","stimuli/organized/Novel pairs (tested)/n12atelescope.jpg","stimuli/organized/Novel pairs (tested)/n12bwatch.jpg","0"
"","803","html-button-response","197","2.0.0","569215","pjr3abynx47","pony","no","0","Which of these items did you see earlier?","","","","","test","","state","true","stimuli/organized/STATE/USED/Scontainer2.JPG","stimuli/organized/STATE/USED/Scontainer1.JPG","0"
"","1315","html-button-response","198","2.0.0","570531","pjr3abynx47","pony","no","1","Which of these items did you see earlier?","","","","","test","","novel","true","stimuli/organized/Novel pairs (tested)/n01bcoin.jpg","stimuli/organized/Novel pairs (tested)/n01aladybug.jpg","1"
"","863","html-button-response","199","2.0.0","571395","pjr3abynx47","pony","no","0","Which of these items did you see earlier?","","","","","test","","novel","true","stimuli/organized/Novel pairs (tested)/n13ablueberries.jpg","stimuli/organized/Novel pairs (tested)/n13bdustpan.jpg","0"
"","1455","html-button-response","200","2.0.0","572851","pjr3abynx47","pony","no","0","Which of these items did you see earlier?","","","","","test","","state","true","stimuli/organized/STATE/USED/Shairbrush1.jpg","stimuli/organized/STATE/USED/Shairbrush2.jpg","0"
"","1199","html-button-response","201","2.0.0","574051","pjr3abynx47","pony","no","1","Which of these items did you see earlier?","","","","","test","","exemplar","true","stimuli/organized/EXEMPLAR/USED/Ecabinet1.jpg","stimuli/organized/EXEMPLAR/USED/Ecabinet2.jpg","1"
"","972","html-button-response","202","2.0.0","575025","pjr3abynx47","pony","no","1","Which of these items did you see earlier?","","","","","test","","state","true","stimuli/organized/STATE/USED/Scookies2.JPG","stimuli/organized/STATE/USED/Scookies1.JPG","1"
"","1125","html-button-response","203","2.0.0","576151","pjr3abynx47","pony","no","1","Which of these items did you see earlier?","","","","","test","","exemplar","true","stimuli/organized/EXEMPLAR/USED/Efeather1.jpg","stimuli/organized/EXEMPLAR/USED/Efeather2.jpg","1"
"","1256","html-button-response","204","2.0.0","577407","pjr3abynx47","pony","no","1","Which of these items did you see earlier?","","","","","test","","exemplar","true","stimuli/organized/EXEMPLAR/USED/Ebread1.jpg","stimuli/organized/EXEMPLAR/USED/Ebread2.jpg","1"
"","2232","html-button-response","205","2.0.0","579641","pjr3abynx47","pony","no","1","Which of these items did you see earlier?","","","","","test","","state","true","stimuli/organized/STATE/USED/Spie1.JPG","stimuli/organized/STATE/USED/Spie2.JPG","1"
"","1389","html-button-response","206","2.0.0","581031","pjr3abynx47","pony","no","0","Which of these items did you see earlier?","","","","","test","","state","true","stimuli/organized/STATE/USED/Sbelt1.jpg","stimuli/organized/STATE/USED/Sbelt2.jpg","0"
"","1991","html-button-response","207","2.0.0","583022","pjr3abynx47","pony","no","1","Which of these items did you see earlier?","","","","","test","","exemplar","true","stimuli/organized/EXEMPLAR/USED/Econe2.jpg","stimuli/organized/EXEMPLAR/USED/Econe1.jpg","1"
"","1834","html-button-response","208","2.0.0","584858","pjr3abynx47","pony","no","1","Which of these items did you see earlier?","","","","","test","","novel","true","stimuli/organized/Novel pairs (tested)/n11abatteries.jpg","stimuli/organized/Novel pairs (tested)/n11bsock.jpg","1"
"","1548","html-button-response","209","2.0.0","586406","pjr3abynx47","pony","no","0","Which of these items did you see earlier?","","","","","test","","state","true","stimuli/organized/STATE/USED/Sdishes2.JPG","stimuli/organized/STATE/USED/Sdishes1.JPG","0"
"","9025","html-button-response","210","2.0.0","595433","pjr3abynx47","pony","no","0","Which of these items did you see earlier?","","","","","test","","exemplar","false","stimuli/organized/EXEMPLAR/USED/Eglobe1.jpg","stimuli/organized/EXEMPLAR/USED/Eglobe2.jpg","1"
"","1172","html-button-response","211","2.0.0","596606","pjr3abynx47","pony","no","0","Which of these items did you see earlier?","","","","","test","","novel","false","stimuli/organized/Novel pairs (tested)/n09bsaddle.jpg","stimuli/organized/Novel pairs (tested)/n09apenguin.jpg","1"
"","1854","html-button-response","212","2.0.0","598461","pjr3abynx47","pony","no","1","Which of these items did you see earlier?","","","","","test","","exemplar","false","stimuli/organized/EXEMPLAR/USED/Ebracelet1.jpg","stimuli/organized/EXEMPLAR/USED/Ebracelet2.jpg","0"
"","1709","html-button-response","213","2.0.0","600171","pjr3abynx47","pony","no","1","Which of these items did you see earlier?","","","","","test","","exemplar","false","stimuli/organized/EXEMPLAR/USED/Egrapes2.jpg","stimuli/organized/EXEMPLAR/USED/Egrapes1.jpg","0"
"","1174","html-button-response","214","2.0.0","601346","pjr3abynx47","pony","no","1","Which of these items did you see earlier?","","","","","test","","state","true","stimuli/organized/STATE/USED/Sbottles2.JPG","stimuli/organized/STATE/USED/Sbottles1.JPG","1"
"","1433","html-button-response","215","2.0.0","602780","pjr3abynx47","pony","no","0","Which of these items did you see earlier?","","","","","test","","exemplar","false","stimuli/organized/EXEMPLAR/USED/Ebell1.jpg","stimuli/organized/EXEMPLAR/USED/Ebell2.jpg","1"
"","1121","html-button-response","216","2.0.0","603902","pjr3abynx47","pony","no","0","Which of these items did you see earlier?","","","","","test","","novel","true","stimuli/organized/Novel pairs (tested)/n07apotato.jpg","stimuli/organized/Novel pairs (tested)/n07bswimmingpool.jpg","0"
"","1256","html-button-response","217","2.0.0","605159","pjr3abynx47","pony","no","0","Which of these items did you see earlier?","","","","","test","","state","false","stimuli/organized/STATE/USED/Sbreadbox2.JPG","stimuli/organized/STATE/USED/Sbreadbox1.JPG","1"
"","1224","html-button-response","218","2.0.0","606384","pjr3abynx47","pony","no","0","Which of these items did you see earlier?","","","","","test","","state","false","stimuli/organized/STATE/USED/Sbureau1.JPG","stimuli/organized/STATE/USED/Sbureau2.JPG","1"
"","1155","html-button-response","219","2.0.0","607540","pjr3abynx47","pony","no","0","Which of these items did you see earlier?","","","","","test","","state","true","stimuli/organized/STATE/USED/Sbooks2.JPG","stimuli/organized/STATE/USED/Sbooks1.JPG","0"
"","1157","html-button-response","220","2.0.0","608697","pjr3abynx47","pony","no","1","Which of these items did you see earlier?","","","","","test","","novel","true","stimuli/organized/Novel pairs (tested)/n17avendingmachine.jpg","stimuli/organized/Novel pairs (tested)/n17bweddingdress.jpg","1"
"","2064","html-button-response","221","2.0.0","610762","pjr3abynx47","pony","no","0","Which of these items did you see earlier?","","","","","test","","novel","true","stimuli/organized/Novel pairs (tested)/n03acamel.jpg","stimuli/organized/Novel pairs (tested)/n03bbagel.jpg","0"
"","1500","html-button-response","222","2.0.0","612262","pjr3abynx47","pony","no","1","Which of these items did you see earlier?","","","","","test","","exemplar","true","stimuli/organized/EXEMPLAR/USED/Egame2.jpg","stimuli/organized/EXEMPLAR/USED/Egame1.jpg","1"
"","966","html-button-response","223","2.0.0","613229","pjr3abynx47","pony","no","1","Which of these items did you see earlier?","","","","","test","","novel","false","stimuli/organized/Novel pairs (tested)/n02bsafetypin.jpg","stimuli/organized/Novel pairs (tested)/n02aaxe.jpg","0"
"","2370","html-button-response","224","2.0.0","615600","pjr3abynx47","pony","no","0","Which of these items did you see earlier?","","","","","test","","state","false","stimuli/organized/STATE/USED/Sfiretrucktoy2.jpg","stimuli/organized/STATE/USED/Sfiretrucktoy1.jpg","1"
"","1148","html-button-response","225","2.0.0","616750","pjr3abynx47","pony","no","1","Which of these items did you see earlier?","","","","","test","","state","false","stimuli/organized/STATE/USED/Sgiftbox1.jpg","stimuli/organized/STATE/USED/Sgiftbox2.jpg","0"
"","1213","html-button-response","226","2.0.0","617964","pjr3abynx47","pony","no","0","Which of these items did you see earlier?","","","","","test","","novel","true","stimuli/organized/Novel pairs (tested)/n14acigarette.jpg","stimuli/organized/Novel pairs (tested)/n14bgolfball.jpg","0"
"","2082","html-button-response","227","2.0.0","620048","pjr3abynx47","pony","no","1","Which of these items did you see earlier?","","","","","test","","state","false","stimuli/organized/STATE/USED/Sbabytoy2.JPG","stimuli/organized/STATE/USED/Sbabytoy1.JPG","0"
"","3784","html-button-response","228","2.0.0","623833","pjr3abynx47","pony","no","1","Which of these items did you see earlier?","","","","","test","","state","false","stimuli/organized/STATE/USED/Sflask1.jpg","stimuli/organized/STATE/USED/Sflask2.jpg","0"
"","721","html-button-response","229","2.0.0","624555","pjr3abynx47","pony","no","0","Which of these items did you see earlier?","","","","","test","","state","false","stimuli/organized/STATE/USED/Sdryer1.jpg","stimuli/organized/STATE/USED/Sdryer2.jpg","1"
"","884","html-button-response","230","2.0.0","625440","pjr3abynx47","pony","no","1","Which of these items did you see earlier?","","","","","test","","novel","true","stimuli/organized/Novel pairs (tested)/n08aoven.jpg","stimuli/organized/Novel pairs (tested)/n08bpaperclip.jpg","1"
"","806","html-button-response","231","2.0.0","626247","pjr3abynx47","pony","no","0","Which of these items did you see earlier?","","","","","test","","state","false","stimuli/organized/STATE/USED/Sdonut1.jpg","stimuli/organized/STATE/USED/Sdonut2.jpg","1"
"","2353","html-button-response","232","2.0.0","628602","pjr3abynx47","pony","no","1","Which of these items did you see earlier?","","","","","test","","novel","true","stimuli/organized/Novel pairs (tested)/n19apickle.jpg","stimuli/organized/Novel pairs (tested)/n19bhairbrush.jpg","1"
"","704","html-button-response","233","2.0.0","629306","pjr3abynx47","pony","no","1","Which of these items did you see earlier?","","","","","test","","exemplar","true","stimuli/organized/EXEMPLAR/USED/Ebasket2.jpg","stimuli/organized/EXEMPLAR/USED/Ebasket1.jpg","1"
"","806","html-button-response","234","2.0.0","630113","pjr3abynx47","pony","no","1","Which of these items did you see earlier?","","","","","test","","state","true","stimuli/organized/STATE/USED/Sbriefcase1.jpg","stimuli/organized/STATE/USED/Sbriefcase2.jpg","1"
"","747","html-button-response","235","2.0.0","630861","pjr3abynx47","pony","no","1","Which of these items did you see earlier?","","","","","test","","novel","false","stimuli/organized/Novel pairs (tested)/n20bshelf.jpg","stimuli/organized/Novel pairs (tested)/n20acarseat.jpg","0"
"","643","html-button-response","236","2.0.0","631506","pjr3abynx47","pony","no","1","Which of these items did you see earlier?","","","","","test","","exemplar","true","stimuli/organized/EXEMPLAR/USED/Echisel1.jpg","stimuli/organized/EXEMPLAR/USED/Echisel2.jpg","1"
"","1680","html-button-response","237","2.0.0","633186","pjr3abynx47","pony","no","0","Which of these items did you see earlier?","","","","","test","","exemplar","true","stimuli/organized/EXEMPLAR/USED/Eframe2.jpg","stimuli/organized/EXEMPLAR/USED/Eframe1.jpg","0"
"","3608","html-button-response","238","2.0.0","636795","pjr3abynx47","pony","no","0","Which of these items did you see earlier?","","","","","test","","state","false","stimuli/organized/STATE/USED/Sscissors1.JPG","stimuli/organized/STATE/USED/Sscissors2.JPG","1"
"","1857","html-button-response","239","2.0.0","638654","pjr3abynx47","pony","no","0","Which of these items did you see earlier?","","","","","test","","novel","false","stimuli/organized/Novel pairs (tested)/n16bhammer.jpg","stimuli/organized/Novel pairs (tested)/n16abananas.jpg","1"
"","8525","html-button-response","240","2.0.0","647179","pjr3abynx47","pony","no","1","Which of these items did you see earlier?","","","","","test","","exemplar","true","stimuli/organized/EXEMPLAR/USED/Ecar2.jpg","stimuli/organized/EXEMPLAR/USED/Ecar1.jpg","1"
"","523","html-button-response","241","2.0.0","647704","pjr3abynx47","pony","no","1","Which of these items did you see earlier?","","","","","test","","state","false","stimuli/organized/STATE/USED/Sapplesgreenbasket2.jpg","stimuli/organized/STATE/USED/Sapplesgreenbasket1.jpg","0"
"","953","html-button-response","242","2.0.0","648657","pjr3abynx47","pony","no","0","Which of these items did you see earlier?","","","","","test","","state","true","stimuli/organized/STATE/USED/Sscanner1.JPG","stimuli/organized/STATE/USED/Sscanner2.JPG","0"
"","802","html-button-response","243","2.0.0","649460","pjr3abynx47","pony","no","0","Which of these items did you see earlier?","","","","","test","","state","false","stimuli/organized/STATE/USED/Sgiftbag2.jpg","stimuli/organized/STATE/USED/Sgiftbag1.jpg","1"
"","8351","survey-html-form","244","2.0.0","657815","pjr3abynx47","pony","no","{""age"":""21"",""gender"":""female"",""memory_experiment_experience"":""yes""}","","","","","","","","","","","",""
"","28496","survey-text","245","2.0.0","686323","pjr3abynx47","pony","no","{""task_guess"":""I believe it was about memory regarding images.""}","","","","","","","","","","","",""
"","2302","survey-text","246","2.0.0","688630","pjr3abynx47","pony","no","{""technical_issues_question"":""no""}","","","","","","","","","","","",""
