"success","rt","trial_type","trial_index","plugin_version","time_elapsed","random_id","participant","technical_issues","response","stimulus","timeout","failed_images","failed_audio","failed_video","trial_phase","is_repeat","test_type","correct","old_image","new_image","correct_position"
"true","1063098","fullscreen","0","null","1064096","pl2pvk311h2","lemur","I'm not sure if this is right, but the only difference after pressing spacebar was the color difference in the plus sign afterwards, and that was quite confusing ","","","","","","","","","","","","",""
"","1871","survey-text","1","2.0.0","1065972","pl2pvk311h2","lemur","I'm not sure if this is right, but the only difference after pressing spacebar was the color difference in the plus sign afterwards, and that was quite confusing ","{""participant_id"":""lemur""}","","","","","","","","","","","",""
"","7500","html-keyboard-response","2","2.0.0","1073473","pl2pvk311h2","lemur","I'm not sure if this is right, but the only difference after pressing spacebar was the color difference in the plus sign afterwards, and that was quite confusing ","m","
      <p>In this experiment, a series of objects will be displayed.</p>
      <p>Try to memorize as much as possible about the objects.</p>
      <p>If the image is a <strong> repeat</strong>, press the SPACEBAR.</p>
      <p>Press any key to begin.</p>
    ","","","","","","","","","","",""
"true","","preload","3","2.0.0","1074036","pl2pvk311h2","lemur","I'm not sure if this is right, but the only difference after pressing spacebar was the color difference in the plus sign afterwards, and that was quite confusing ","","","false","[]","[]","[]","","","","","","",""
"","null","html-keyboard-response","4","2.0.0","1075040","pl2pvk311h2","lemur","I'm not sure if this is right, but the only difference after pressing spacebar was the color difference in the plus sign afterwards, and that was quite confusing ","null","<div style=""font-size:60px;"">+</div>","","","","","","","","","","",""
"","null","image-keyboard-response","5","2.0.0","1078044","pl2pvk311h2","lemur","I'm not sure if this is right, but the only difference after pressing spacebar was the color difference in the plus sign afterwards, and that was quite confusing ","null","stimuli/organized/STATE/USED/Sbottles2.JPG","","","","","memory","false","state","true","","",""
"","null","html-keyboard-response","6","2.0.0","1079048","pl2pvk311h2","lemur","I'm not sure if this is right, but the only difference after pressing spacebar was the color difference in the plus sign afterwards, and that was quite confusing ","null","<div style=""font-size:60px; color:black;"">+</div>","","","","","","","","","","",""
"","null","image-keyboard-response","7","2.0.0","1082052","pl2pvk311h2","lemur","I'm not sure if this is right, but the only difference after pressing spacebar was the color difference in the plus sign afterwards, and that was quite confusing ","null","stimuli/organized/STATE/USED/Sdonut1.jpg","","","","","memory","false","state","true","","",""
"","null","html-keyboard-response","8","2.0.0","1083056","pl2pvk311h2","lemur","I'm not sure if this is right, but the only difference after pressing spacebar was the color difference in the plus sign afterwards, and that was quite confusing ","null","<div style=""font-size:60px; color:black;"">+</div>","","","","","","","","","","",""
"","null","image-keyboard-response","9","2.0.0","1086060","pl2pvk311h2","lemur","I'm not sure if this is right, but the only difference after pressing spacebar was the color difference in the plus sign afterwards, and that was quite confusing ","null","stimuli/organized/EXEMPLAR/USED/Ebicycle1.jpg","","","","","memory","false","exemplar","true","","",""
"","null","html-keyboard-response","10","2.0.0","1087063","pl2pvk311h2","lemur","I'm not sure if this is right, but the only difference after pressing spacebar was the color difference in the plus sign afterwards, and that was quite confusing ","null","<div style=""font-size:60px; color:black;"">+</div>","","","","","","","","","","",""
"","null","image-keyboard-response","11","2.0.0","1090067","pl2pvk311h2","lemur","I'm not sure if this is right, but the only difference after pressing spacebar was the color difference in the plus sign afterwards, and that was quite confusing ","null","stimuli/organized/EXEMPLAR/USED/Egame2.jpg","","","","","memory","false","exemplar","true","","",""
"","null","html-keyboard-response","12","2.0.0","1091070","pl2pvk311h2","lemur","I'm not sure if this is right, but the only difference after pressing spacebar was the color difference in the plus sign afterwards, and that was quite confusing ","null","<div style=""font-size:60px; color:black;"">+</div>","","","","","","","","","","",""
"","null","image-keyboard-response","13","2.0.0","1094074","pl2pvk311h2","lemur","I'm not sure if this is right, but the only difference after pressing spacebar was the color difference in the plus sign afterwards, and that was quite confusing ","null","stimuli/organized/STATE/USED/Sgiftbag1.jpg","","","","","memory","false","state","true","","",""
"","null","html-keyboard-response","14","2.0.0","1095077","pl2pvk311h2","lemur","I'm not sure if this is right, but the only difference after pressing spacebar was the color difference in the plus sign afterwards, and that was quite confusing ","null","<div style=""font-size:60px; color:black;"">+</div>","","","","","","","","","","",""
"","null","image-keyboard-response","15","2.0.0","1098081","pl2pvk311h2","lemur","I'm not sure if this is right, but the only difference after pressing spacebar was the color difference in the plus sign afterwards, and that was quite confusing ","null","stimuli/organized/Novel pairs (tested)/n15bfootball.jpg","","","","","memory","false","novel","true","","",""
"","null","html-keyboard-response","16","2.0.0","1099085","pl2pvk311h2","lemur","I'm not sure if this is right, but the only difference after pressing spacebar was the color difference in the plus sign afterwards, and that was quite confusing ","null","<div style=""font-size:60px; color:black;"">+</div>","","","","","","","","","","",""
"","null","image-keyboard-response","17","2.0.0","1102089","pl2pvk311h2","lemur","I'm not sure if this is right, but the only difference after pressing spacebar was the color difference in the plus sign afterwards, and that was quite confusing ","null","stimuli/organized/Novel pairs (tested)/n05bcactus.jpg","","","","","memory","false","novel","true","","",""
"","null","html-keyboard-response","18","2.0.0","1103092","pl2pvk311h2","lemur","I'm not sure if this is right, but the only difference after pressing spacebar was the color difference in the plus sign afterwards, and that was quite confusing ","null","<div style=""font-size:60px; color:black;"">+</div>","","","","","","","","","","",""
"","null","image-keyboard-response","19","2.0.0","1106096","pl2pvk311h2","lemur","I'm not sure if this is right, but the only difference after pressing spacebar was the color difference in the plus sign afterwards, and that was quite confusing ","null","stimuli/organized/STATE/USED/Sbreadbox1.JPG","","","","","memory","false","state","true","","",""
"","null","html-keyboard-response","20","2.0.0","1107098","pl2pvk311h2","lemur","I'm not sure if this is right, but the only difference after pressing spacebar was the color difference in the plus sign afterwards, and that was quite confusing ","null","<div style=""font-size:60px; color:black;"">+</div>","","","","","","","","","","",""
"","null","image-keyboard-response","21","2.0.0","1110102","pl2pvk311h2","lemur","I'm not sure if this is right, but the only difference after pressing spacebar was the color difference in the plus sign afterwards, and that was quite confusing ","null","stimuli/organized/Novel pairs (tested)/n09apenguin.jpg","","","","","memory","false","novel","true","","",""
"","null","html-keyboard-response","22","2.0.0","1111105","pl2pvk311h2","lemur","I'm not sure if this is right, but the only difference after pressing spacebar was the color difference in the plus sign afterwards, and that was quite confusing ","null","<div style=""font-size:60px; color:black;"">+</div>","","","","","","","","","","",""
"","null","image-keyboard-response","23","2.0.0","1114109","pl2pvk311h2","lemur","I'm not sure if this is right, but the only difference after pressing spacebar was the color difference in the plus sign afterwards, and that was quite confusing ","null","stimuli/organized/EXEMPLAR/USED/Edispenser2.jpg","","","","","memory","false","exemplar","true","","",""
"","null","html-keyboard-response","24","2.0.0","1115112","pl2pvk311h2","lemur","I'm not sure if this is right, but the only difference after pressing spacebar was the color difference in the plus sign afterwards, and that was quite confusing ","null","<div style=""font-size:60px; color:black;"">+</div>","","","","","","","","","","",""
"","null","image-keyboard-response","25","2.0.0","1118116","pl2pvk311h2","lemur","I'm not sure if this is right, but the only difference after pressing spacebar was the color difference in the plus sign afterwards, and that was quite confusing ","null","stimuli/organized/STATE/USED/Sbelt2.jpg","","","","","memory","false","state","true","","",""
"","null","html-keyboard-response","26","2.0.0","1119119","pl2pvk311h2","lemur","I'm not sure if this is right, but the only difference after pressing spacebar was the color difference in the plus sign afterwards, and that was quite confusing ","null","<div style=""font-size:60px; color:black;"">+</div>","","","","","","","","","","",""
"","null","image-keyboard-response","27","2.0.0","1122123","pl2pvk311h2","lemur","I'm not sure if this is right, but the only difference after pressing spacebar was the color difference in the plus sign afterwards, and that was quite confusing ","null","stimuli/organized/STATE/USED/Scrayons2.jpg","","","","","memory","false","state","true","","",""
"","null","html-keyboard-response","28","2.0.0","1123126","pl2pvk311h2","lemur","I'm not sure if this is right, but the only difference after pressing spacebar was the color difference in the plus sign afterwards, and that was quite confusing ","null","<div style=""font-size:60px; color:black;"">+</div>","","","","","","","","","","",""
"","null","image-keyboard-response","29","2.0.0","1126129","pl2pvk311h2","lemur","I'm not sure if this is right, but the only difference after pressing spacebar was the color difference in the plus sign afterwards, and that was quite confusing ","null","stimuli/organized/STATE/USED/Scookies2.JPG","","","","","memory","false","state","true","","",""
"","null","html-keyboard-response","30","2.0.0","1127132","pl2pvk311h2","lemur","I'm not sure if this is right, but the only difference after pressing spacebar was the color difference in the plus sign afterwards, and that was quite confusing ","null","<div style=""font-size:60px; color:black;"">+</div>","","","","","","","","","","",""
"","null","image-keyboard-response","31","2.0.0","1130136","pl2pvk311h2","lemur","I'm not sure if this is right, but the only difference after pressing spacebar was the color difference in the plus sign afterwards, and that was quite confusing ","null","stimuli/organized/Novel pairs (tested)/n13bdustpan.jpg","","","","","memory","false","novel","true","","",""
"","null","html-keyboard-response","32","2.0.0","1131139","pl2pvk311h2","lemur","I'm not sure if this is right, but the only difference after pressing spacebar was the color difference in the plus sign afterwards, and that was quite confusing ","null","<div style=""font-size:60px; color:black;"">+</div>","","","","","","","","","","",""
"","null","image-keyboard-response","33","2.0.0","1134143","pl2pvk311h2","lemur","I'm not sure if this is right, but the only difference after pressing spacebar was the color difference in the plus sign afterwards, and that was quite confusing ","null","stimuli/organized/EXEMPLAR/USED/Ecamera2.jpg","","","","","memory","false","exemplar","true","","",""
"","null","html-keyboard-response","34","2.0.0","1135146","pl2pvk311h2","lemur","I'm not sure if this is right, but the only difference after pressing spacebar was the color difference in the plus sign afterwards, and that was quite confusing ","null","<div style=""font-size:60px; color:black;"">+</div>","","","","","","","","","","",""
"","null","image-keyboard-response","35","2.0.0","1138150","pl2pvk311h2","lemur","I'm not sure if this is right, but the only difference after pressing spacebar was the color difference in the plus sign afterwards, and that was quite confusing ","null","stimuli/organized/EXEMPLAR/USED/Efan1.jpg","","","","","memory","false","exemplar","true","","",""
"","null","html-keyboard-response","36","2.0.0","1139152","pl2pvk311h2","lemur","I'm not sure if this is right, but the only difference after pressing spacebar was the color difference in the plus sign afterwards, and that was quite confusing ","null","<div style=""font-size:60px; color:black;"">+</div>","","","","","","","","","","",""
"","null","image-keyboard-response","37","2.0.0","1142156","pl2pvk311h2","lemur","I'm not sure if this is right, but the only difference after pressing spacebar was the color difference in the plus sign afterwards, and that was quite confusing ","null","stimuli/organized/STATE/USED/Sphone1.JPG","","","","","memory","false","state","true","","",""
"","null","html-keyboard-response","38","2.0.0","1143159","pl2pvk311h2","lemur","I'm not sure if this is right, but the only difference after pressing spacebar was the color difference in the plus sign afterwards, and that was quite confusing ","null","<div style=""font-size:60px; color:black;"">+</div>","","","","","","","","","","",""
"","null","image-keyboard-response","39","2.0.0","1146164","pl2pvk311h2","lemur","I'm not sure if this is right, but the only difference after pressing spacebar was the color difference in the plus sign afterwards, and that was quite confusing ","null","stimuli/organized/EXEMPLAR/USED/Ecalculator1.jpg","","","","","memory","false","exemplar","true","","",""
"","null","html-keyboard-response","40","2.0.0","1147168","pl2pvk311h2","lemur","I'm not sure if this is right, but the only difference after pressing spacebar was the color difference in the plus sign afterwards, and that was quite confusing ","null","<div style=""font-size:60px; color:black;"">+</div>","","","","","","","","","","",""
"","null","image-keyboard-response","41","2.0.0","1150172","pl2pvk311h2","lemur","I'm not sure if this is right, but the only difference after pressing spacebar was the color difference in the plus sign afterwards, and that was quite confusing ","null","stimuli/organized/STATE/USED/Sbooks1.JPG","","","","","memory","false","state","true","","",""
"","null","html-keyboard-response","42","2.0.0","1151175","pl2pvk311h2","lemur","I'm not sure if this is right, but the only difference after pressing spacebar was the color difference in the plus sign afterwards, and that was quite confusing ","null","<div style=""font-size:60px; color:black;"">+</div>","","","","","","","","","","",""
"","null","image-keyboard-response","43","2.0.0","1154178","pl2pvk311h2","lemur","I'm not sure if this is right, but the only difference after pressing spacebar was the color difference in the plus sign afterwards, and that was quite confusing ","null","stimuli/organized/Novel pairs (tested)/n17bweddingdress.jpg","","","","","memory","false","novel","true","","",""
"","null","html-keyboard-response","44","2.0.0","1155181","pl2pvk311h2","lemur","I'm not sure if this is right, but the only difference after pressing spacebar was the color difference in the plus sign afterwards, and that was quite confusing ","null","<div style=""font-size:60px; color:black;"">+</div>","","","","","","","","","","",""
"","null","image-keyboard-response","45","2.0.0","1158184","pl2pvk311h2","lemur","I'm not sure if this is right, but the only difference after pressing spacebar was the color difference in the plus sign afterwards, and that was quite confusing ","null","stimuli/organized/Novel pairs (tested)/n14acigarette.jpg","","","","","memory","false","novel","true","","",""
"","null","html-keyboard-response","46","2.0.0","1159188","pl2pvk311h2","lemur","I'm not sure if this is right, but the only difference after pressing spacebar was the color difference in the plus sign afterwards, and that was quite confusing ","null","<div style=""font-size:60px; color:black;"">+</div>","","","","","","","","","","",""
"","null","image-keyboard-response","47","2.0.0","1162191","pl2pvk311h2","lemur","I'm not sure if this is right, but the only difference after pressing spacebar was the color difference in the plus sign afterwards, and that was quite confusing ","null","stimuli/organized/Novel pairs (tested)/n02aaxe.jpg","","","","","memory","false","novel","true","","",""
"","null","html-keyboard-response","48","2.0.0","1163194","pl2pvk311h2","lemur","I'm not sure if this is right, but the only difference after pressing spacebar was the color difference in the plus sign afterwards, and that was quite confusing ","null","<div style=""font-size:60px; color:black;"">+</div>","","","","","","","","","","",""
"","null","image-keyboard-response","49","2.0.0","1166197","pl2pvk311h2","lemur","I'm not sure if this is right, but the only difference after pressing spacebar was the color difference in the plus sign afterwards, and that was quite confusing ","null","stimuli/organized/STATE/USED/Spie2.JPG","","","","","memory","false","state","true","","",""
"","null","html-keyboard-response","50","2.0.0","1167200","pl2pvk311h2","lemur","I'm not sure if this is right, but the only difference after pressing spacebar was the color difference in the plus sign afterwards, and that was quite confusing ","null","<div style=""font-size:60px; color:black;"">+</div>","","","","","","","","","","",""
"","null","image-keyboard-response","51","2.0.0","1170204","pl2pvk311h2","lemur","I'm not sure if this is right, but the only difference after pressing spacebar was the color difference in the plus sign afterwards, and that was quite confusing ","null","stimuli/organized/Novel pairs (tested)/n08aoven.jpg","","","","","memory","false","novel","true","","",""
"","null","html-keyboard-response","52","2.0.0","1171207","pl2pvk311h2","lemur","I'm not sure if this is right, but the only difference after pressing spacebar was the color difference in the plus sign afterwards, and that was quite confusing ","null","<div style=""font-size:60px; color:black;"">+</div>","","","","","","","","","","",""
"","null","image-keyboard-response","53","2.0.0","1174211","pl2pvk311h2","lemur","I'm not sure if this is right, but the only difference after pressing spacebar was the color difference in the plus sign afterwards, and that was quite confusing ","null","stimuli/organized/STATE/USED/Scontainer1.JPG","","","","","memory","false","state","true","","",""
"","null","html-keyboard-response","54","2.0.0","1175214","pl2pvk311h2","lemur","I'm not sure if this is right, but the only difference after pressing spacebar was the color difference in the plus sign afterwards, and that was quite confusing ","null","<div style=""font-size:60px; color:black;"">+</div>","","","","","","","","","","",""
"","null","image-keyboard-response","55","2.0.0","1178218","pl2pvk311h2","lemur","I'm not sure if this is right, but the only difference after pressing spacebar was the color difference in the plus sign afterwards, and that was quite confusing ","null","stimuli/organized/STATE/USED/Sbabytoy1.JPG","","","","","memory","false","state","true","","",""
"","null","html-keyboard-response","56","2.0.0","1179221","pl2pvk311h2","lemur","I'm not sure if this is right, but the only difference after pressing spacebar was the color difference in the plus sign afterwards, and that was quite confusing ","null","<div style=""font-size:60px; color:black;"">+</div>","","","","","","","","","","",""
"","null","image-keyboard-response","57","2.0.0","1182224","pl2pvk311h2","lemur","I'm not sure if this is right, but the only difference after pressing spacebar was the color difference in the plus sign afterwards, and that was quite confusing ","null","stimuli/organized/STATE/USED/Seggs2.jpg","","","","","memory","false","state","true","","",""
"","null","html-keyboard-response","58","2.0.0","1183226","pl2pvk311h2","lemur","I'm not sure if this is right, but the only difference after pressing spacebar was the color difference in the plus sign afterwards, and that was quite confusing ","null","<div style=""font-size:60px; color:black;"">+</div>","","","","","","","","","","",""
"","null","image-keyboard-response","59","2.0.0","1186229","pl2pvk311h2","lemur","I'm not sure if this is right, but the only difference after pressing spacebar was the color difference in the plus sign afterwards, and that was quite confusing ","null","stimuli/organized/STATE/USED/Sfiretrucktoy1.jpg","","","","","memory","false","state","true","","",""
"","null","html-keyboard-response","60","2.0.0","1187231","pl2pvk311h2","lemur","I'm not sure if this is right, but the only difference after pressing spacebar was the color difference in the plus sign afterwards, and that was quite confusing ","null","<div style=""font-size:60px; color:black;"">+</div>","","","","","","","","","","",""
"","null","image-keyboard-response","61","2.0.0","1190234","pl2pvk311h2","lemur","I'm not sure if this is right, but the only difference after pressing spacebar was the color difference in the plus sign afterwards, and that was quite confusing ","null","stimuli/organized/Novel pairs (tested)/n06acane.jpg","","","","","memory","false","novel","true","","",""
"","null","html-keyboard-response","62","2.0.0","1191237","pl2pvk311h2","lemur","I'm not sure if this is right, but the only difference after pressing spacebar was the color difference in the plus sign afterwards, and that was quite confusing ","null","<div style=""font-size:60px; color:black;"">+</div>","","","","","","","","","","",""
"","null","image-keyboard-response","63","2.0.0","1194241","pl2pvk311h2","lemur","I'm not sure if this is right, but the only difference after pressing spacebar was the color difference in the plus sign afterwards, and that was quite confusing ","null","stimuli/organized/Novel pairs (tested)/n10awindmill.jpg","","","","","memory","false","novel","true","","",""
"","null","html-keyboard-response","64","2.0.0","1195244","pl2pvk311h2","lemur","I'm not sure if this is right, but the only difference after pressing spacebar was the color difference in the plus sign afterwards, and that was quite confusing ","null","<div style=""font-size:60px; color:black;"">+</div>","","","","","","","","","","",""
"","null","image-keyboard-response","65","2.0.0","1198247","pl2pvk311h2","lemur","I'm not sure if this is right, but the only difference after pressing spacebar was the color difference in the plus sign afterwards, and that was quite confusing ","null","stimuli/organized/Novel pairs (tested)/n11abatteries.jpg","","","","","memory","false","novel","true","","",""
"","null","html-keyboard-response","66","2.0.0","1199249","pl2pvk311h2","lemur","I'm not sure if this is right, but the only difference after pressing spacebar was the color difference in the plus sign afterwards, and that was quite confusing ","null","<div style=""font-size:60px; color:black;"">+</div>","","","","","","","","","","",""
"","null","image-keyboard-response","67","2.0.0","1202253","pl2pvk311h2","lemur","I'm not sure if this is right, but the only difference after pressing spacebar was the color difference in the plus sign afterwards, and that was quite confusing ","null","stimuli/organized/STATE/USED/Scoffeemaker2.JPG","","","","","memory","false","state","true","","",""
"","null","html-keyboard-response","68","2.0.0","1203255","pl2pvk311h2","lemur","I'm not sure if this is right, but the only difference after pressing spacebar was the color difference in the plus sign afterwards, and that was quite confusing ","null","<div style=""font-size:60px; color:black;"">+</div>","","","","","","","","","","",""
"","null","image-keyboard-response","69","2.0.0","1206258","pl2pvk311h2","lemur","I'm not sure if this is right, but the only difference after pressing spacebar was the color difference in the plus sign afterwards, and that was quite confusing ","null","stimuli/organized/STATE/USED/Spotpan2.JPG","","","","","memory","false","state","true","","",""
"","null","html-keyboard-response","70","2.0.0","1207261","pl2pvk311h2","lemur","I'm not sure if this is right, but the only difference after pressing spacebar was the color difference in the plus sign afterwards, and that was quite confusing ","null","<div style=""font-size:60px; color:black;"">+</div>","","","","","","","","","","",""
"","null","image-keyboard-response","71","2.0.0","1210264","pl2pvk311h2","lemur","I'm not sure if this is right, but the only difference after pressing spacebar was the color difference in the plus sign afterwards, and that was quite confusing ","null","stimuli/organized/STATE/USED/Sbrushes2.jpg","","","","","memory","false","state","true","","",""
"","null","html-keyboard-response","72","2.0.0","1211267","pl2pvk311h2","lemur","I'm not sure if this is right, but the only difference after pressing spacebar was the color difference in the plus sign afterwards, and that was quite confusing ","null","<div style=""font-size:60px; color:black;"">+</div>","","","","","","","","","","",""
"","null","image-keyboard-response","73","2.0.0","1214270","pl2pvk311h2","lemur","I'm not sure if this is right, but the only difference after pressing spacebar was the color difference in the plus sign afterwards, and that was quite confusing ","null","stimuli/organized/STATE/USED/Sdrum2.jpg","","","","","memory","false","state","true","","",""
"","null","html-keyboard-response","74","2.0.0","1215272","pl2pvk311h2","lemur","I'm not sure if this is right, but the only difference after pressing spacebar was the color difference in the plus sign afterwards, and that was quite confusing ","null","<div style=""font-size:60px; color:black;"">+</div>","","","","","","","","","","",""
"","null","image-keyboard-response","75","2.0.0","1218275","pl2pvk311h2","lemur","I'm not sure if this is right, but the only difference after pressing spacebar was the color difference in the plus sign afterwards, and that was quite confusing ","null","stimuli/organized/EXEMPLAR/USED/Egoggles1.jpg","","","","","memory","false","exemplar","true","","",""
"","null","html-keyboard-response","76","2.0.0","1219277","pl2pvk311h2","lemur","I'm not sure if this is right, but the only difference after pressing spacebar was the color difference in the plus sign afterwards, and that was quite confusing ","null","<div style=""font-size:60px; color:black;"">+</div>","","","","","","","","","","",""
"","null","image-keyboard-response","77","2.0.0","1222281","pl2pvk311h2","lemur","I'm not sure if this is right, but the only difference after pressing spacebar was the color difference in the plus sign afterwards, and that was quite confusing ","null","stimuli/organized/Novel pairs (tested)/n01aladybug.jpg","","","","","memory","false","novel","true","","",""
"","null","html-keyboard-response","78","2.0.0","1223284","pl2pvk311h2","lemur","I'm not sure if this is right, but the only difference after pressing spacebar was the color difference in the plus sign afterwards, and that was quite confusing ","null","<div style=""font-size:60px; color:black;"">+</div>","","","","","","","","","","",""
"","null","image-keyboard-response","79","2.0.0","1226288","pl2pvk311h2","lemur","I'm not sure if this is right, but the only difference after pressing spacebar was the color difference in the plus sign afterwards, and that was quite confusing ","null","stimuli/organized/Novel pairs (tested)/n12atelescope.jpg","","","","","memory","false","novel","true","","",""
"","null","html-keyboard-response","80","2.0.0","1227291","pl2pvk311h2","lemur","I'm not sure if this is right, but the only difference after pressing spacebar was the color difference in the plus sign afterwards, and that was quite confusing ","null","<div style=""font-size:60px; color:black;"">+</div>","","","","","","","","","","",""
"","null","image-keyboard-response","81","2.0.0","1230295","pl2pvk311h2","lemur","I'm not sure if this is right, but the only difference after pressing spacebar was the color difference in the plus sign afterwards, and that was quite confusing ","null","stimuli/organized/Novel pairs (tested)/n16bhammer.jpg","","","","","memory","false","novel","true","","",""
"","null","html-keyboard-response","82","2.0.0","1231298","pl2pvk311h2","lemur","I'm not sure if this is right, but the only difference after pressing spacebar was the color difference in the plus sign afterwards, and that was quite confusing ","null","<div style=""font-size:60px; color:black;"">+</div>","","","","","","","","","","",""
"","null","image-keyboard-response","83","2.0.0","1234301","pl2pvk311h2","lemur","I'm not sure if this is right, but the only difference after pressing spacebar was the color difference in the plus sign afterwards, and that was quite confusing ","null","stimuli/organized/STATE/USED/Sgiftbox2.jpg","","","","","memory","false","state","true","","",""
"","null","html-keyboard-response","84","2.0.0","1235305","pl2pvk311h2","lemur","I'm not sure if this is right, but the only difference after pressing spacebar was the color difference in the plus sign afterwards, and that was quite confusing ","null","<div style=""font-size:60px; color:black;"">+</div>","","","","","","","","","","",""
"","null","image-keyboard-response","85","2.0.0","1238308","pl2pvk311h2","lemur","I'm not sure if this is right, but the only difference after pressing spacebar was the color difference in the plus sign afterwards, and that was quite confusing ","null","stimuli/organized/STATE/USED/Sjuiceglass2.JPG","","","","","memory","false","state","true","","",""
"","null","html-keyboard-response","86","2.0.0","1239310","pl2pvk311h2","lemur","I'm not sure if this is right, but the only difference after pressing spacebar was the color difference in the plus sign afterwards, and that was quite confusing ","null","<div style=""font-size:60px; color:black;"">+</div>","","","","","","","","","","",""
"","null","image-keyboard-response","87","2.0.0","1242314","pl2pvk311h2","lemur","I'm not sure if this is right, but the only difference after pressing spacebar was the color difference in the plus sign afterwards, and that was quite confusing ","null","stimuli/organized/STATE/USED/Sscissors1.JPG","","","","","memory","false","state","true","","",""
"","null","html-keyboard-response","88","2.0.0","1243317","pl2pvk311h2","lemur","I'm not sure if this is right, but the only difference after pressing spacebar was the color difference in the plus sign afterwards, and that was quite confusing ","null","<div style=""font-size:60px; color:black;"">+</div>","","","","","","","","","","",""
"","null","image-keyboard-response","89","2.0.0","1246321","pl2pvk311h2","lemur","I'm not sure if this is right, but the only difference after pressing spacebar was the color difference in the plus sign afterwards, and that was quite confusing ","null","stimuli/organized/STATE/USED/Sdryer2.jpg","","","","","memory","false","state","true","","",""
"","null","html-keyboard-response","90","2.0.0","1247324","pl2pvk311h2","lemur","I'm not sure if this is right, but the only difference after pressing spacebar was the color difference in the plus sign afterwards, and that was quite confusing ","null","<div style=""font-size:60px; color:black;"">+</div>","","","","","","","","","","",""
"","1309","image-keyboard-response","91","2.0.0","1250328","pl2pvk311h2","lemur","I'm not sure if this is right, but the only difference after pressing spacebar was the color difference in the plus sign afterwards, and that was quite confusing "," ","stimuli/organized/EXEMPLAR/USED/Egame2.jpg","","","","","memory","true","exemplar","true","","",""
"","null","html-keyboard-response","92","2.0.0","1251330","pl2pvk311h2","lemur","I'm not sure if this is right, but the only difference after pressing spacebar was the color difference in the plus sign afterwards, and that was quite confusing ","null","<div style=""font-size:60px; color:green;"">+</div>","","","","","","","","","","",""
"","null","image-keyboard-response","93","2.0.0","1254333","pl2pvk311h2","lemur","I'm not sure if this is right, but the only difference after pressing spacebar was the color difference in the plus sign afterwards, and that was quite confusing ","null","stimuli/organized/STATE/USED/Sgrinder2.jpg","","","","","memory","false","state","true","","",""
"","null","html-keyboard-response","94","2.0.0","1255336","pl2pvk311h2","lemur","I'm not sure if this is right, but the only difference after pressing spacebar was the color difference in the plus sign afterwards, and that was quite confusing ","null","<div style=""font-size:60px; color:black;"">+</div>","","","","","","","","","","",""
"","null","image-keyboard-response","95","2.0.0","1258340","pl2pvk311h2","lemur","I'm not sure if this is right, but the only difference after pressing spacebar was the color difference in the plus sign afterwards, and that was quite confusing ","null","stimuli/organized/EXEMPLAR/USED/Eglobe1.jpg","","","","","memory","false","exemplar","true","","",""
"","null","html-keyboard-response","96","2.0.0","1259342","pl2pvk311h2","lemur","I'm not sure if this is right, but the only difference after pressing spacebar was the color difference in the plus sign afterwards, and that was quite confusing ","null","<div style=""font-size:60px; color:black;"">+</div>","","","","","","","","","","",""
"","null","image-keyboard-response","97","2.0.0","1262347","pl2pvk311h2","lemur","I'm not sure if this is right, but the only difference after pressing spacebar was the color difference in the plus sign afterwards, and that was quite confusing ","null","stimuli/organized/EXEMPLAR/USED/Econe1.jpg","","","","","memory","false","exemplar","true","","",""
"","null","html-keyboard-response","98","2.0.0","1263349","pl2pvk311h2","lemur","I'm not sure if this is right, but the only difference after pressing spacebar was the color difference in the plus sign afterwards, and that was quite confusing ","null","<div style=""font-size:60px; color:black;"">+</div>","","","","","","","","","","",""
"","null","image-keyboard-response","99","2.0.0","1266353","pl2pvk311h2","lemur","I'm not sure if this is right, but the only difference after pressing spacebar was the color difference in the plus sign afterwards, and that was quite confusing ","null","stimuli/organized/STATE/USED/Sapplesgreenbasket2.jpg","","","","","memory","false","state","true","","",""
"","null","html-keyboard-response","100","2.0.0","1267356","pl2pvk311h2","lemur","I'm not sure if this is right, but the only difference after pressing spacebar was the color difference in the plus sign afterwards, and that was quite confusing ","null","<div style=""font-size:60px; color:black;"">+</div>","","","","","","","","","","",""
"","700","image-keyboard-response","101","2.0.0","1270359","pl2pvk311h2","lemur","I'm not sure if this is right, but the only difference after pressing spacebar was the color difference in the plus sign afterwards, and that was quite confusing "," ","stimuli/organized/STATE/USED/Spotpan2.JPG","","","","","memory","true","state","true","","",""
"","null","html-keyboard-response","102","2.0.0","1271362","pl2pvk311h2","lemur","I'm not sure if this is right, but the only difference after pressing spacebar was the color difference in the plus sign afterwards, and that was quite confusing ","null","<div style=""font-size:60px; color:green;"">+</div>","","","","","","","","","","",""
"","null","image-keyboard-response","103","2.0.0","1274366","pl2pvk311h2","lemur","I'm not sure if this is right, but the only difference after pressing spacebar was the color difference in the plus sign afterwards, and that was quite confusing ","null","stimuli/organized/EXEMPLAR/USED/Egrapes1.jpg","","","","","memory","false","exemplar","true","","",""
"","null","html-keyboard-response","104","2.0.0","1275369","pl2pvk311h2","lemur","I'm not sure if this is right, but the only difference after pressing spacebar was the color difference in the plus sign afterwards, and that was quite confusing ","null","<div style=""font-size:60px; color:black;"">+</div>","","","","","","","","","","",""
"","null","image-keyboard-response","105","2.0.0","1278372","pl2pvk311h2","lemur","I'm not sure if this is right, but the only difference after pressing spacebar was the color difference in the plus sign afterwards, and that was quite confusing ","null","stimuli/organized/STATE/USED/Sscanner2.JPG","","","","","memory","false","state","true","","",""
"","null","html-keyboard-response","106","2.0.0","1279375","pl2pvk311h2","lemur","I'm not sure if this is right, but the only difference after pressing spacebar was the color difference in the plus sign afterwards, and that was quite confusing ","null","<div style=""font-size:60px; color:black;"">+</div>","","","","","","","","","","",""
"","null","image-keyboard-response","107","2.0.0","1282379","pl2pvk311h2","lemur","I'm not sure if this is right, but the only difference after pressing spacebar was the color difference in the plus sign afterwards, and that was quite confusing ","null","stimuli/organized/EXEMPLAR/USED/Echocolatebar2.jpg","","","","","memory","false","exemplar","true","","",""
"","null","html-keyboard-response","108","2.0.0","1283381","pl2pvk311h2","lemur","I'm not sure if this is right, but the only difference after pressing spacebar was the color difference in the plus sign afterwards, and that was quite confusing ","null","<div style=""font-size:60px; color:black;"">+</div>","","","","","","","","","","",""
"","null","image-keyboard-response","109","2.0.0","1286385","pl2pvk311h2","lemur","I'm not sure if this is right, but the only difference after pressing spacebar was the color difference in the plus sign afterwards, and that was quite confusing ","null","stimuli/organized/EXEMPLAR/USED/Ecar1.jpg","","","","","memory","false","exemplar","true","","",""
"","null","html-keyboard-response","110","2.0.0","1287388","pl2pvk311h2","lemur","I'm not sure if this is right, but the only difference after pressing spacebar was the color difference in the plus sign afterwards, and that was quite confusing ","null","<div style=""font-size:60px; color:black;"">+</div>","","","","","","","","","","",""
"","1473","image-keyboard-response","111","2.0.0","1290392","pl2pvk311h2","lemur","I'm not sure if this is right, but the only difference after pressing spacebar was the color difference in the plus sign afterwards, and that was quite confusing "," ","stimuli/organized/EXEMPLAR/USED/Ebread2.jpg","","","","","memory","false","exemplar","false","","",""
"","null","html-keyboard-response","112","2.0.0","1291394","pl2pvk311h2","lemur","I'm not sure if this is right, but the only difference after pressing spacebar was the color difference in the plus sign afterwards, and that was quite confusing ","null","<div style=""font-size:60px; color:red;"">+</div>","","","","","","","","","","",""
"","null","image-keyboard-response","113","2.0.0","1294397","pl2pvk311h2","lemur","I'm not sure if this is right, but the only difference after pressing spacebar was the color difference in the plus sign afterwards, and that was quite confusing ","null","stimuli/organized/EXEMPLAR/USED/Echisel2.jpg","","","","","memory","false","exemplar","true","","",""
"","null","html-keyboard-response","114","2.0.0","1295401","pl2pvk311h2","lemur","I'm not sure if this is right, but the only difference after pressing spacebar was the color difference in the plus sign afterwards, and that was quite confusing ","null","<div style=""font-size:60px; color:black;"">+</div>","","","","","","","","","","",""
"","null","image-keyboard-response","115","2.0.0","1298405","pl2pvk311h2","lemur","I'm not sure if this is right, but the only difference after pressing spacebar was the color difference in the plus sign afterwards, and that was quite confusing ","null","stimuli/organized/STATE/USED/Schinesefoodbox1.jpg","","","","","memory","false","state","true","","",""
"","null","html-keyboard-response","116","2.0.0","1299408","pl2pvk311h2","lemur","I'm not sure if this is right, but the only difference after pressing spacebar was the color difference in the plus sign afterwards, and that was quite confusing ","null","<div style=""font-size:60px; color:black;"">+</div>","","","","","","","","","","",""
"","null","image-keyboard-response","117","2.0.0","1302411","pl2pvk311h2","lemur","I'm not sure if this is right, but the only difference after pressing spacebar was the color difference in the plus sign afterwards, and that was quite confusing ","null","stimuli/organized/EXEMPLAR/USED/Ebasket1.jpg","","","","","memory","false","exemplar","true","","",""
"","null","html-keyboard-response","118","2.0.0","1303413","pl2pvk311h2","lemur","I'm not sure if this is right, but the only difference after pressing spacebar was the color difference in the plus sign afterwards, and that was quite confusing ","null","<div style=""font-size:60px; color:black;"">+</div>","","","","","","","","","","",""
"","null","image-keyboard-response","119","2.0.0","1306417","pl2pvk311h2","lemur","I'm not sure if this is right, but the only difference after pressing spacebar was the color difference in the plus sign afterwards, and that was quite confusing ","null","stimuli/organized/STATE/USED/Sdishes1.JPG","","","","","memory","false","state","true","","",""
"","null","html-keyboard-response","120","2.0.0","1307419","pl2pvk311h2","lemur","I'm not sure if this is right, but the only difference after pressing spacebar was the color difference in the plus sign afterwards, and that was quite confusing ","null","<div style=""font-size:60px; color:black;"">+</div>","","","","","","","","","","",""
"","null","image-keyboard-response","121","2.0.0","1310423","pl2pvk311h2","lemur","I'm not sure if this is right, but the only difference after pressing spacebar was the color difference in the plus sign afterwards, and that was quite confusing ","null","stimuli/organized/Novel pairs (tested)/n04ayarn.jpg","","","","","memory","false","novel","true","","",""
"","null","html-keyboard-response","122","2.0.0","1311426","pl2pvk311h2","lemur","I'm not sure if this is right, but the only difference after pressing spacebar was the color difference in the plus sign afterwards, and that was quite confusing ","null","<div style=""font-size:60px; color:black;"">+</div>","","","","","","","","","","",""
"","null","image-keyboard-response","123","2.0.0","1314430","pl2pvk311h2","lemur","I'm not sure if this is right, but the only difference after pressing spacebar was the color difference in the plus sign afterwards, and that was quite confusing ","null","stimuli/organized/EXEMPLAR/USED/Ebell2.jpg","","","","","memory","false","exemplar","true","","",""
"","null","html-keyboard-response","124","2.0.0","1315432","pl2pvk311h2","lemur","I'm not sure if this is right, but the only difference after pressing spacebar was the color difference in the plus sign afterwards, and that was quite confusing ","null","<div style=""font-size:60px; color:black;"">+</div>","","","","","","","","","","",""
"","648","image-keyboard-response","125","2.0.0","1318435","pl2pvk311h2","lemur","I'm not sure if this is right, but the only difference after pressing spacebar was the color difference in the plus sign afterwards, and that was quite confusing "," ","stimuli/organized/Novel pairs (tested)/n16bhammer.jpg","","","","","memory","true","novel","true","","",""
"","null","html-keyboard-response","126","2.0.0","1319437","pl2pvk311h2","lemur","I'm not sure if this is right, but the only difference after pressing spacebar was the color difference in the plus sign afterwards, and that was quite confusing ","null","<div style=""font-size:60px; color:green;"">+</div>","","","","","","","","","","",""
"","null","image-keyboard-response","127","2.0.0","1322441","pl2pvk311h2","lemur","I'm not sure if this is right, but the only difference after pressing spacebar was the color difference in the plus sign afterwards, and that was quite confusing ","null","stimuli/organized/STATE/USED/Shairbrush2.jpg","","","","","memory","false","state","true","","",""
"","null","html-keyboard-response","128","2.0.0","1323444","pl2pvk311h2","lemur","I'm not sure if this is right, but the only difference after pressing spacebar was the color difference in the plus sign afterwards, and that was quite confusing ","null","<div style=""font-size:60px; color:black;"">+</div>","","","","","","","","","","",""
"","null","image-keyboard-response","129","2.0.0","1326447","pl2pvk311h2","lemur","I'm not sure if this is right, but the only difference after pressing spacebar was the color difference in the plus sign afterwards, and that was quite confusing ","null","stimuli/organized/STATE/USED/Sbureau1.JPG","","","","","memory","false","state","true","","",""
"","null","html-keyboard-response","130","2.0.0","1327451","pl2pvk311h2","lemur","I'm not sure if this is right, but the only difference after pressing spacebar was the color difference in the plus sign afterwards, and that was quite confusing ","null","<div style=""font-size:60px; color:black;"">+</div>","","","","","","","","","","",""
"","null","image-keyboard-response","131","2.0.0","1330455","pl2pvk311h2","lemur","I'm not sure if this is right, but the only difference after pressing spacebar was the color difference in the plus sign afterwards, and that was quite confusing ","null","stimuli/organized/Novel pairs (tested)/n18apretzel.jpg","","","","","memory","false","novel","true","","",""
"","null","html-keyboard-response","132","2.0.0","1331457","pl2pvk311h2","lemur","I'm not sure if this is right, but the only difference after pressing spacebar was the color difference in the plus sign afterwards, and that was quite confusing ","null","<div style=""font-size:60px; color:black;"">+</div>","","","","","","","","","","",""
"","null","image-keyboard-response","133","2.0.0","1334461","pl2pvk311h2","lemur","I'm not sure if this is right, but the only difference after pressing spacebar was the color difference in the plus sign afterwards, and that was quite confusing ","null","stimuli/organized/Novel pairs (tested)/n07bswimmingpool.jpg","","","","","memory","false","novel","true","","",""
"","null","html-keyboard-response","134","2.0.0","1335465","pl2pvk311h2","lemur","I'm not sure if this is right, but the only difference after pressing spacebar was the color difference in the plus sign afterwards, and that was quite confusing ","null","<div style=""font-size:60px; color:black;"">+</div>","","","","","","","","","","",""
"","null","image-keyboard-response","135","2.0.0","1338469","pl2pvk311h2","lemur","I'm not sure if this is right, but the only difference after pressing spacebar was the color difference in the plus sign afterwards, and that was quite confusing ","null","stimuli/organized/EXEMPLAR/USED/Efeather2.jpg","","","","","memory","false","exemplar","true","","",""
"","null","html-keyboard-response","136","2.0.0","1339471","pl2pvk311h2","lemur","I'm not sure if this is right, but the only difference after pressing spacebar was the color difference in the plus sign afterwards, and that was quite confusing ","null","<div style=""font-size:60px; color:black;"">+</div>","","","","","","","","","","",""
"","null","image-keyboard-response","137","2.0.0","1342475","pl2pvk311h2","lemur","I'm not sure if this is right, but the only difference after pressing spacebar was the color difference in the plus sign afterwards, and that was quite confusing ","null","stimuli/organized/Novel pairs (tested)/n19apickle.jpg","","","","","memory","false","novel","true","","",""
"","null","html-keyboard-response","138","2.0.0","1343478","pl2pvk311h2","lemur","I'm not sure if this is right, but the only difference after pressing spacebar was the color difference in the plus sign afterwards, and that was quite confusing ","null","<div style=""font-size:60px; color:black;"">+</div>","","","","","","","","","","",""
"","1830","image-keyboard-response","139","2.0.0","1346482","pl2pvk311h2","lemur","I'm not sure if this is right, but the only difference after pressing spacebar was the color difference in the plus sign afterwards, and that was quite confusing "," ","stimuli/organized/EXEMPLAR/USED/Ecabinet1.jpg","","","","","memory","false","exemplar","false","","",""
"","null","html-keyboard-response","140","2.0.0","1347484","pl2pvk311h2","lemur","I'm not sure if this is right, but the only difference after pressing spacebar was the color difference in the plus sign afterwards, and that was quite confusing ","null","<div style=""font-size:60px; color:red;"">+</div>","","","","","","","","","","",""
"","null","image-keyboard-response","141","2.0.0","1350488","pl2pvk311h2","lemur","I'm not sure if this is right, but the only difference after pressing spacebar was the color difference in the plus sign afterwards, and that was quite confusing ","null","stimuli/organized/STATE/USED/Sdresser2.jpg","","","","","memory","false","state","true","","",""
"","null","html-keyboard-response","142","2.0.0","1351491","pl2pvk311h2","lemur","I'm not sure if this is right, but the only difference after pressing spacebar was the color difference in the plus sign afterwards, and that was quite confusing ","null","<div style=""font-size:60px; color:black;"">+</div>","","","","","","","","","","",""
"","null","image-keyboard-response","143","2.0.0","1354495","pl2pvk311h2","lemur","I'm not sure if this is right, but the only difference after pressing spacebar was the color difference in the plus sign afterwards, and that was quite confusing ","null","stimuli/organized/STATE/USED/Sdie1.jpg","","","","","memory","false","state","true","","",""
"","null","html-keyboard-response","144","2.0.0","1355497","pl2pvk311h2","lemur","I'm not sure if this is right, but the only difference after pressing spacebar was the color difference in the plus sign afterwards, and that was quite confusing ","null","<div style=""font-size:60px; color:black;"">+</div>","","","","","","","","","","",""
"","null","image-keyboard-response","145","2.0.0","1358501","pl2pvk311h2","lemur","I'm not sure if this is right, but the only difference after pressing spacebar was the color difference in the plus sign afterwards, and that was quite confusing ","null","stimuli/organized/Novel pairs (tested)/n03bbagel.jpg","","","","","memory","false","novel","true","","",""
"","null","html-keyboard-response","146","2.0.0","1359505","pl2pvk311h2","lemur","I'm not sure if this is right, but the only difference after pressing spacebar was the color difference in the plus sign afterwards, and that was quite confusing ","null","<div style=""font-size:60px; color:black;"">+</div>","","","","","","","","","","",""
"","null","image-keyboard-response","147","2.0.0","1362508","pl2pvk311h2","lemur","I'm not sure if this is right, but the only difference after pressing spacebar was the color difference in the plus sign afterwards, and that was quite confusing ","null","stimuli/organized/EXEMPLAR/USED/Eframe2.jpg","","","","","memory","false","exemplar","true","","",""
"","null","html-keyboard-response","148","2.0.0","1363511","pl2pvk311h2","lemur","I'm not sure if this is right, but the only difference after pressing spacebar was the color difference in the plus sign afterwards, and that was quite confusing ","null","<div style=""font-size:60px; color:black;"">+</div>","","","","","","","","","","",""
"","null","image-keyboard-response","149","2.0.0","1366515","pl2pvk311h2","lemur","I'm not sure if this is right, but the only difference after pressing spacebar was the color difference in the plus sign afterwards, and that was quite confusing ","null","stimuli/organized/STATE/USED/Sbriefcase1.jpg","","","","","memory","false","state","true","","",""
"","null","html-keyboard-response","150","2.0.0","1367517","pl2pvk311h2","lemur","I'm not sure if this is right, but the only difference after pressing spacebar was the color difference in the plus sign afterwards, and that was quite confusing ","null","<div style=""font-size:60px; color:black;"">+</div>","","","","","","","","","","",""
"","null","image-keyboard-response","151","2.0.0","1370521","pl2pvk311h2","lemur","I'm not sure if this is right, but the only difference after pressing spacebar was the color difference in the plus sign afterwards, and that was quite confusing ","null","stimuli/organized/STATE/USED/Sbox2.jpg","","","","","memory","false","state","true","","",""
"","null","html-keyboard-response","152","2.0.0","1371524","pl2pvk311h2","lemur","I'm not sure if this is right, but the only difference after pressing spacebar was the color difference in the plus sign afterwards, and that was quite confusing ","null","<div style=""font-size:60px; color:black;"">+</div>","","","","","","","","","","",""
"","null","image-keyboard-response","153","2.0.0","1374527","pl2pvk311h2","lemur","I'm not sure if this is right, but the only difference after pressing spacebar was the color difference in the plus sign afterwards, and that was quite confusing ","null","stimuli/organized/Novel pairs (tested)/n20acarseat.jpg","","","","","memory","false","novel","true","","",""
"","null","html-keyboard-response","154","2.0.0","1375530","pl2pvk311h2","lemur","I'm not sure if this is right, but the only difference after pressing spacebar was the color difference in the plus sign afterwards, and that was quite confusing ","null","<div style=""font-size:60px; color:black;"">+</div>","","","","","","","","","","",""
"","1421","image-keyboard-response","155","2.0.0","1378534","pl2pvk311h2","lemur","I'm not sure if this is right, but the only difference after pressing spacebar was the color difference in the plus sign afterwards, and that was quite confusing "," ","stimuli/organized/EXEMPLAR/USED/Efan1.jpg","","","","","memory","true","exemplar","true","","",""
"","null","html-keyboard-response","156","2.0.0","1379537","pl2pvk311h2","lemur","I'm not sure if this is right, but the only difference after pressing spacebar was the color difference in the plus sign afterwards, and that was quite confusing ","null","<div style=""font-size:60px; color:green;"">+</div>","","","","","","","","","","",""
"","null","image-keyboard-response","157","2.0.0","1382541","pl2pvk311h2","lemur","I'm not sure if this is right, but the only difference after pressing spacebar was the color difference in the plus sign afterwards, and that was quite confusing ","null","stimuli/organized/STATE/USED/Sabacus1.jpg","","","","","memory","false","state","true","","",""
"","null","html-keyboard-response","158","2.0.0","1383544","pl2pvk311h2","lemur","I'm not sure if this is right, but the only difference after pressing spacebar was the color difference in the plus sign afterwards, and that was quite confusing ","null","<div style=""font-size:60px; color:black;"">+</div>","","","","","","","","","","",""
"","null","image-keyboard-response","159","2.0.0","1386547","pl2pvk311h2","lemur","I'm not sure if this is right, but the only difference after pressing spacebar was the color difference in the plus sign afterwards, and that was quite confusing ","null","stimuli/organized/EXEMPLAR/USED/Ebracelet2.jpg","","","","","memory","false","exemplar","true","","",""
"","null","html-keyboard-response","160","2.0.0","1387550","pl2pvk311h2","lemur","I'm not sure if this is right, but the only difference after pressing spacebar was the color difference in the plus sign afterwards, and that was quite confusing ","null","<div style=""font-size:60px; color:black;"">+</div>","","","","","","","","","","",""
"","null","image-keyboard-response","161","2.0.0","1390554","pl2pvk311h2","lemur","I'm not sure if this is right, but the only difference after pressing spacebar was the color difference in the plus sign afterwards, and that was quite confusing ","null","stimuli/organized/STATE/USED/Slaptop2.JPG","","","","","memory","false","state","true","","",""
"","null","html-keyboard-response","162","2.0.0","1391557","pl2pvk311h2","lemur","I'm not sure if this is right, but the only difference after pressing spacebar was the color difference in the plus sign afterwards, and that was quite confusing ","null","<div style=""font-size:60px; color:black;"">+</div>","","","","","","","","","","",""
"","null","image-keyboard-response","163","2.0.0","1394560","pl2pvk311h2","lemur","I'm not sure if this is right, but the only difference after pressing spacebar was the color difference in the plus sign afterwards, and that was quite confusing ","null","stimuli/organized/STATE/USED/Sflask2.jpg","","","","","memory","false","state","true","","",""
"","null","html-keyboard-response","164","2.0.0","1395563","pl2pvk311h2","lemur","I'm not sure if this is right, but the only difference after pressing spacebar was the color difference in the plus sign afterwards, and that was quite confusing ","null","<div style=""font-size:60px; color:black;"">+</div>","","","","","","","","","","",""
"","716","image-keyboard-response","165","2.0.0","1398567","pl2pvk311h2","lemur","I'm not sure if this is right, but the only difference after pressing spacebar was the color difference in the plus sign afterwards, and that was quite confusing "," ","stimuli/organized/STATE/USED/Sbureau1.JPG","","","","","memory","true","state","true","","",""
"","6622","html-button-response","166","2.0.0","1405191","pl2pvk311h2","lemur","I'm not sure if this is right, but the only difference after pressing spacebar was the color difference in the plus sign afterwards, and that was quite confusing ","0","<p>You have completed the study phase.</p><p>Take a short break. Press the button below when you are ready to continue.</p>","","","","","","","","","","",""
"","4623","html-keyboard-response","167","2.0.0","1409815","pl2pvk311h2","lemur","I'm not sure if this is right, but the only difference after pressing spacebar was the color difference in the plus sign afterwards, and that was quite confusing "," ","<p>You will now be shown pairs of images.</p><p>Select the image you remember seeing during the study phase.</p><p>Focus on accuracy, not speed.</p><p>Press any key to begin.</p>","","","","","","","","","","",""
"","1476","html-button-response","168","2.0.0","1411292","pl2pvk311h2","lemur","I'm not sure if this is right, but the only difference after pressing spacebar was the color difference in the plus sign afterwards, and that was quite confusing ","0","Which of these items did you see earlier?","","","","","test","","novel","true","stimuli/organized/Novel pairs (tested)/n14acigarette.jpg","stimuli/organized/Novel pairs (tested)/n14bgolfball.jpg","0"
"","1715","html-button-response","169","2.0.0","1413008","pl2pvk311h2","lemur","I'm not sure if this is right, but the only difference after pressing spacebar was the color difference in the plus sign afterwards, and that was quite confusing ","1","Which of these items did you see earlier?","","","","","test","","exemplar","true","stimuli/organized/EXEMPLAR/USED/Eframe2.jpg","stimuli/organized/EXEMPLAR/USED/Eframe1.jpg","1"
"","1232","html-button-response","170","2.0.0","1414240","pl2pvk311h2","lemur","I'm not sure if this is right, but the only difference after pressing spacebar was the color difference in the plus sign afterwards, and that was quite confusing ","0","Which of these items did you see earlier?","","","","","test","","state","true","stimuli/organized/STATE/USED/Sfiretrucktoy1.jpg","stimuli/organized/STATE/USED/Sfiretrucktoy2.jpg","0"
"","1004","html-button-response","171","2.0.0","1415244","pl2pvk311h2","lemur","I'm not sure if this is right, but the only difference after pressing spacebar was the color difference in the plus sign afterwards, and that was quite confusing ","0","Which of these items did you see earlier?","","","","","test","","exemplar","true","stimuli/organized/EXEMPLAR/USED/Edispenser2.jpg","stimuli/organized/EXEMPLAR/USED/Edispenser1.jpg","0"
"","1611","html-button-response","172","2.0.0","1416856","pl2pvk311h2","lemur","I'm not sure if this is right, but the only difference after pressing spacebar was the color difference in the plus sign afterwards, and that was quite confusing ","1","Which of these items did you see earlier?","","","","","test","","state","true","stimuli/organized/STATE/USED/Schinesefoodbox1.jpg","stimuli/organized/STATE/USED/Schinesefoodbox2.jpg","1"
"","2587","html-button-response","173","2.0.0","1419444","pl2pvk311h2","lemur","I'm not sure if this is right, but the only difference after pressing spacebar was the color difference in the plus sign afterwards, and that was quite confusing ","1","Which of these items did you see earlier?","","","","","test","","state","true","stimuli/organized/STATE/USED/Sbelt2.jpg","stimuli/organized/STATE/USED/Sbelt1.jpg","1"
"","892","html-button-response","174","2.0.0","1420337","pl2pvk311h2","lemur","I'm not sure if this is right, but the only difference after pressing spacebar was the color difference in the plus sign afterwards, and that was quite confusing ","1","Which of these items did you see earlier?","","","","","test","","exemplar","true","stimuli/organized/EXEMPLAR/USED/Egame2.jpg","stimuli/organized/EXEMPLAR/USED/Egame1.jpg","1"
"","1569","html-button-response","175","2.0.0","1421906","pl2pvk311h2","lemur","I'm not sure if this is right, but the only difference after pressing spacebar was the color difference in the plus sign afterwards, and that was quite confusing ","0","Which of these items did you see earlier?","","","","","test","","state","true","stimuli/organized/STATE/USED/Sscanner2.JPG","stimuli/organized/STATE/USED/Sscanner1.JPG","0"
"","1299","html-button-response","176","2.0.0","1423206","pl2pvk311h2","lemur","I'm not sure if this is right, but the only difference after pressing spacebar was the color difference in the plus sign afterwards, and that was quite confusing ","0","Which of these items did you see earlier?","","","","","test","","exemplar","true","stimuli/organized/EXEMPLAR/USED/Ebasket1.jpg","stimuli/organized/EXEMPLAR/USED/Ebasket2.jpg","0"
"","1791","html-button-response","177","2.0.0","1424997","pl2pvk311h2","lemur","I'm not sure if this is right, but the only difference after pressing spacebar was the color difference in the plus sign afterwards, and that was quite confusing ","1","Which of these items did you see earlier?","","","","","test","","state","true","stimuli/organized/STATE/USED/Sbreadbox1.JPG","stimuli/organized/STATE/USED/Sbreadbox2.JPG","1"
"","1639","html-button-response","178","2.0.0","1426637","pl2pvk311h2","lemur","I'm not sure if this is right, but the only difference after pressing spacebar was the color difference in the plus sign afterwards, and that was quite confusing ","1","Which of these items did you see earlier?","","","","","test","","exemplar","true","stimuli/organized/EXEMPLAR/USED/Ebread2.jpg","stimuli/organized/EXEMPLAR/USED/Ebread1.jpg","1"
"","1151","html-button-response","179","2.0.0","1427789","pl2pvk311h2","lemur","I'm not sure if this is right, but the only difference after pressing spacebar was the color difference in the plus sign afterwards, and that was quite confusing ","0","Which of these items did you see earlier?","","","","","test","","novel","true","stimuli/organized/Novel pairs (tested)/n19apickle.jpg","stimuli/organized/Novel pairs (tested)/n19bhairbrush.jpg","0"
"","1045","html-button-response","180","2.0.0","1428834","pl2pvk311h2","lemur","I'm not sure if this is right, but the only difference after pressing spacebar was the color difference in the plus sign afterwards, and that was quite confusing ","0","Which of these items did you see earlier?","","","","","test","","state","true","stimuli/organized/STATE/USED/Sbrushes2.jpg","stimuli/organized/STATE/USED/Sbrushes1.jpg","0"
"","2157","html-button-response","181","2.0.0","1430993","pl2pvk311h2","lemur","I'm not sure if this is right, but the only difference after pressing spacebar was the color difference in the plus sign afterwards, and that was quite confusing ","0","Which of these items did you see earlier?","","","","","test","","exemplar","true","stimuli/organized/EXEMPLAR/USED/Echisel2.jpg","stimuli/organized/EXEMPLAR/USED/Echisel1.jpg","0"
"","1576","html-button-response","182","2.0.0","1432569","pl2pvk311h2","lemur","I'm not sure if this is right, but the only difference after pressing spacebar was the color difference in the plus sign afterwards, and that was quite confusing ","1","Which of these items did you see earlier?","","","","","test","","exemplar","true","stimuli/organized/EXEMPLAR/USED/Ecamera2.jpg","stimuli/organized/EXEMPLAR/USED/Ecamera1.jpg","1"
"","1310","html-button-response","183","2.0.0","1433880","pl2pvk311h2","lemur","I'm not sure if this is right, but the only difference after pressing spacebar was the color difference in the plus sign afterwards, and that was quite confusing ","0","Which of these items did you see earlier?","","","","","test","","state","true","stimuli/organized/STATE/USED/Sphone1.JPG","stimuli/organized/STATE/USED/Sphone2.JPG","0"
"","840","html-button-response","184","2.0.0","1434721","pl2pvk311h2","lemur","I'm not sure if this is right, but the only difference after pressing spacebar was the color difference in the plus sign afterwards, and that was quite confusing ","0","Which of these items did you see earlier?","","","","","test","","novel","true","stimuli/organized/Novel pairs (tested)/n15bfootball.jpg","stimuli/organized/Novel pairs (tested)/n15aspiderweb.jpg","0"
"","963","html-button-response","185","2.0.0","1435685","pl2pvk311h2","lemur","I'm not sure if this is right, but the only difference after pressing spacebar was the color difference in the plus sign afterwards, and that was quite confusing ","0","Which of these items did you see earlier?","","","","","test","","state","true","stimuli/organized/STATE/USED/Sscissors1.JPG","stimuli/organized/STATE/USED/Sscissors2.JPG","0"
"","978","html-button-response","186","2.0.0","1436663","pl2pvk311h2","lemur","I'm not sure if this is right, but the only difference after pressing spacebar was the color difference in the plus sign afterwards, and that was quite confusing ","1","Which of these items did you see earlier?","","","","","test","","state","true","stimuli/organized/STATE/USED/Sbureau1.JPG","stimuli/organized/STATE/USED/Sbureau2.JPG","1"
"","1200","html-button-response","187","2.0.0","1437864","pl2pvk311h2","lemur","I'm not sure if this is right, but the only difference after pressing spacebar was the color difference in the plus sign afterwards, and that was quite confusing ","0","Which of these items did you see earlier?","","","","","test","","state","true","stimuli/organized/STATE/USED/Sabacus1.jpg","stimuli/organized/STATE/USED/Sabacus2.jpg","0"
"","1076","html-button-response","188","2.0.0","1438940","pl2pvk311h2","lemur","I'm not sure if this is right, but the only difference after pressing spacebar was the color difference in the plus sign afterwards, and that was quite confusing ","0","Which of these items did you see earlier?","","","","","test","","exemplar","true","stimuli/organized/EXEMPLAR/USED/Echocolatebar2.jpg","stimuli/organized/EXEMPLAR/USED/Echocolatebar1.jpg","0"
"","775","html-button-response","189","2.0.0","1439716","pl2pvk311h2","lemur","I'm not sure if this is right, but the only difference after pressing spacebar was the color difference in the plus sign afterwards, and that was quite confusing ","0","Which of these items did you see earlier?","","","","","test","","novel","true","stimuli/organized/Novel pairs (tested)/n02aaxe.jpg","stimuli/organized/Novel pairs (tested)/n02bsafetypin.jpg","0"
"","2028","html-button-response","190","2.0.0","1441745","pl2pvk311h2","lemur","I'm not sure if this is right, but the only difference after pressing spacebar was the color difference in the plus sign afterwards, and that was quite confusing ","1","Which of these items did you see earlier?","","","","","test","","state","true","stimuli/organized/STATE/USED/Sbox2.jpg","stimuli/organized/STATE/USED/Sbox1.jpg","1"
"","1525","html-button-response","191","2.0.0","1443270","pl2pvk311h2","lemur","I'm not sure if this is right, but the only difference after pressing spacebar was the color difference in the plus sign afterwards, and that was quite confusing ","0","Which of these items did you see earlier?","","","","","test","","state","true","stimuli/organized/STATE/USED/Sbabytoy1.JPG","stimuli/organized/STATE/USED/Sbabytoy2.JPG","0"
"","1019","html-button-response","192","2.0.0","1444289","pl2pvk311h2","lemur","I'm not sure if this is right, but the only difference after pressing spacebar was the color difference in the plus sign afterwards, and that was quite confusing ","1","Which of these items did you see earlier?","","","","","test","","exemplar","true","stimuli/organized/EXEMPLAR/USED/Egoggles1.jpg","stimuli/organized/EXEMPLAR/USED/Egoggles2.jpg","1"
"","1315","html-button-response","193","2.0.0","1445604","pl2pvk311h2","lemur","I'm not sure if this is right, but the only difference after pressing spacebar was the color difference in the plus sign afterwards, and that was quite confusing ","1","Which of these items did you see earlier?","","","","","test","","novel","true","stimuli/organized/Novel pairs (tested)/n08aoven.jpg","stimuli/organized/Novel pairs (tested)/n08bpaperclip.jpg","1"
"","977","html-button-response","194","2.0.0","1446582","pl2pvk311h2","lemur","I'm not sure if this is right, but the only difference after pressing spacebar was the color difference in the plus sign afterwards, and that was quite confusing ","0","Which of these items did you see earlier?","","","","","test","","exemplar","true","stimuli/organized/EXEMPLAR/USED/Econe1.jpg","stimuli/organized/EXEMPLAR/USED/Econe2.jpg","0"
"","1218","html-button-response","195","2.0.0","1447800","pl2pvk311h2","lemur","I'm not sure if this is right, but the only difference after pressing spacebar was the color difference in the plus sign afterwards, and that was quite confusing ","1","Which of these items did you see earlier?","","","","","test","","state","true","stimuli/organized/STATE/USED/Sdryer2.jpg","stimuli/organized/STATE/USED/Sdryer1.jpg","1"
"","788","html-button-response","196","2.0.0","1448588","pl2pvk311h2","lemur","I'm not sure if this is right, but the only difference after pressing spacebar was the color difference in the plus sign afterwards, and that was quite confusing ","1","Which of these items did you see earlier?","","","","","test","","exemplar","true","stimuli/organized/EXEMPLAR/USED/Efan1.jpg","stimuli/organized/EXEMPLAR/USED/Efan2.jpg","1"
"","1179","html-button-response","197","2.0.0","1449768","pl2pvk311h2","lemur","I'm not sure if this is right, but the only difference after pressing spacebar was the color difference in the plus sign afterwards, and that was quite confusing ","0","Which of these items did you see earlier?","","","","","test","","state","true","stimuli/organized/STATE/USED/Scrayons2.jpg","stimuli/organized/STATE/USED/Scrayons1.jpg","0"
"","1795","html-button-response","198","2.0.0","1451564","pl2pvk311h2","lemur","I'm not sure if this is right, but the only difference after pressing spacebar was the color difference in the plus sign afterwards, and that was quite confusing ","0","Which of these items did you see earlier?","","","","","test","","exemplar","true","stimuli/organized/EXEMPLAR/USED/Ebicycle1.jpg","stimuli/organized/EXEMPLAR/USED/Ebicycle2.jpg","0"
"","1071","html-button-response","199","2.0.0","1452636","pl2pvk311h2","lemur","I'm not sure if this is right, but the only difference after pressing spacebar was the color difference in the plus sign afterwards, and that was quite confusing ","1","Which of these items did you see earlier?","","","","","test","","state","true","stimuli/organized/STATE/USED/Sgrinder2.jpg","stimuli/organized/STATE/USED/Sgrinder1.jpg","1"
"","1095","html-button-response","200","2.0.0","1453736","pl2pvk311h2","lemur","I'm not sure if this is right, but the only difference after pressing spacebar was the color difference in the plus sign afterwards, and that was quite confusing ","1","Which of these items did you see earlier?","","","","","test","","novel","true","stimuli/organized/Novel pairs (tested)/n06acane.jpg","stimuli/organized/Novel pairs (tested)/n06blipstick.jpg","1"
"","1199","html-button-response","201","2.0.0","1454938","pl2pvk311h2","lemur","I'm not sure if this is right, but the only difference after pressing spacebar was the color difference in the plus sign afterwards, and that was quite confusing ","0","Which of these items did you see earlier?","","","","","test","","exemplar","true","stimuli/organized/EXEMPLAR/USED/Egrapes1.jpg","stimuli/organized/EXEMPLAR/USED/Egrapes2.jpg","0"
"","870","html-button-response","202","2.0.0","1455809","pl2pvk311h2","lemur","I'm not sure if this is right, but the only difference after pressing spacebar was the color difference in the plus sign afterwards, and that was quite confusing ","0","Which of these items did you see earlier?","","","","","test","","state","true","stimuli/organized/STATE/USED/Sbooks1.JPG","stimuli/organized/STATE/USED/Sbooks2.JPG","0"
"","821","html-button-response","203","2.0.0","1456630","pl2pvk311h2","lemur","I'm not sure if this is right, but the only difference after pressing spacebar was the color difference in the plus sign afterwards, and that was quite confusing ","0","Which of these items did you see earlier?","","","","","test","","novel","true","stimuli/organized/Novel pairs (tested)/n04ayarn.jpg","stimuli/organized/Novel pairs (tested)/n04bbandaid.jpg","0"
"","1232","html-button-response","204","2.0.0","1457863","pl2pvk311h2","lemur","I'm not sure if this is right, but the only difference after pressing spacebar was the color difference in the plus sign afterwards, and that was quite confusing ","0","Which of these items did you see earlier?","","","","","test","","exemplar","true","stimuli/organized/EXEMPLAR/USED/Eglobe1.jpg","stimuli/organized/EXEMPLAR/USED/Eglobe2.jpg","0"
"","1960","html-button-response","205","2.0.0","1459823","pl2pvk311h2","lemur","I'm not sure if this is right, but the only difference after pressing spacebar was the color difference in the plus sign afterwards, and that was quite confusing ","0","Which of these items did you see earlier?","","","","","test","","state","true","stimuli/organized/STATE/USED/Shairbrush2.jpg","stimuli/organized/STATE/USED/Shairbrush1.jpg","0"
"","1372","html-button-response","206","2.0.0","1461196","pl2pvk311h2","lemur","I'm not sure if this is right, but the only difference after pressing spacebar was the color difference in the plus sign afterwards, and that was quite confusing ","0","Which of these items did you see earlier?","","","","","test","","novel","true","stimuli/organized/Novel pairs (tested)/n07bswimmingpool.jpg","stimuli/organized/Novel pairs (tested)/n07apotato.jpg","0"
"","5252","html-button-response","207","2.0.0","1466449","pl2pvk311h2","lemur","I'm not sure if this is right, but the only difference after pressing spacebar was the color difference in the plus sign afterwards, and that was quite confusing ","0","Which of these items did you see earlier?","","","","","test","","state","true","stimuli/organized/STATE/USED/Sdie1.jpg","stimuli/organized/STATE/USED/Sdie2.jpg","0"
"","1253","html-button-response","208","2.0.0","1467702","pl2pvk311h2","lemur","I'm not sure if this is right, but the only difference after pressing spacebar was the color difference in the plus sign afterwards, and that was quite confusing ","1","Which of these items did you see earlier?","","","","","test","","state","true","stimuli/organized/STATE/USED/Scoffeemaker2.JPG","stimuli/organized/STATE/USED/Scoffeemaker1.JPG","1"
"","963","html-button-response","209","2.0.0","1468665","pl2pvk311h2","lemur","I'm not sure if this is right, but the only difference after pressing spacebar was the color difference in the plus sign afterwards, and that was quite confusing ","0","Which of these items did you see earlier?","","","","","test","","state","true","stimuli/organized/STATE/USED/Sflask2.jpg","stimuli/organized/STATE/USED/Sflask1.jpg","0"
"","1900","html-button-response","210","2.0.0","1470566","pl2pvk311h2","lemur","I'm not sure if this is right, but the only difference after pressing spacebar was the color difference in the plus sign afterwards, and that was quite confusing ","0","Which of these items did you see earlier?","","","","","test","","state","true","stimuli/organized/STATE/USED/Seggs2.jpg","stimuli/organized/STATE/USED/Seggs1.jpg","0"
"","799","html-button-response","211","2.0.0","1471365","pl2pvk311h2","lemur","I'm not sure if this is right, but the only difference after pressing spacebar was the color difference in the plus sign afterwards, and that was quite confusing ","0","Which of these items did you see earlier?","","","","","test","","novel","true","stimuli/organized/Novel pairs (tested)/n05bcactus.jpg","stimuli/organized/Novel pairs (tested)/n05abarrel.jpg","0"
"","1174","html-button-response","212","2.0.0","1472539","pl2pvk311h2","lemur","I'm not sure if this is right, but the only difference after pressing spacebar was the color difference in the plus sign afterwards, and that was quite confusing ","1","Which of these items did you see earlier?","","","","","test","","novel","true","stimuli/organized/Novel pairs (tested)/n10awindmill.jpg","stimuli/organized/Novel pairs (tested)/n10bturkey.jpg","1"
"","1053","html-button-response","213","2.0.0","1473593","pl2pvk311h2","lemur","I'm not sure if this is right, but the only difference after pressing spacebar was the color difference in the plus sign afterwards, and that was quite confusing ","0","Which of these items did you see earlier?","","","","","test","","state","true","stimuli/organized/STATE/USED/Sdishes1.JPG","stimuli/organized/STATE/USED/Sdishes2.JPG","0"
"","1122","html-button-response","214","2.0.0","1474716","pl2pvk311h2","lemur","I'm not sure if this is right, but the only difference after pressing spacebar was the color difference in the plus sign afterwards, and that was quite confusing ","0","Which of these items did you see earlier?","","","","","test","","exemplar","true","stimuli/organized/EXEMPLAR/USED/Ebell2.jpg","stimuli/organized/EXEMPLAR/USED/Ebell1.jpg","0"
"","1133","html-button-response","215","2.0.0","1475850","pl2pvk311h2","lemur","I'm not sure if this is right, but the only difference after pressing spacebar was the color difference in the plus sign afterwards, and that was quite confusing ","1","Which of these items did you see earlier?","","","","","test","","exemplar","true","stimuli/organized/EXEMPLAR/USED/Ebracelet2.jpg","stimuli/organized/EXEMPLAR/USED/Ebracelet1.jpg","1"
"","2886","html-button-response","216","2.0.0","1478736","pl2pvk311h2","lemur","I'm not sure if this is right, but the only difference after pressing spacebar was the color difference in the plus sign afterwards, and that was quite confusing ","1","Which of these items did you see earlier?","","","","","test","","state","true","stimuli/organized/STATE/USED/Slaptop2.JPG","stimuli/organized/STATE/USED/Slaptop1.JPG","1"
"","5154","html-button-response","217","2.0.0","1483890","pl2pvk311h2","lemur","I'm not sure if this is right, but the only difference after pressing spacebar was the color difference in the plus sign afterwards, and that was quite confusing ","0","Which of these items did you see earlier?","","","","","test","","state","false","stimuli/organized/STATE/USED/Sbriefcase1.jpg","stimuli/organized/STATE/USED/Sbriefcase2.jpg","1"
"","935","html-button-response","218","2.0.0","1484825","pl2pvk311h2","lemur","I'm not sure if this is right, but the only difference after pressing spacebar was the color difference in the plus sign afterwards, and that was quite confusing ","0","Which of these items did you see earlier?","","","","","test","","state","true","stimuli/organized/STATE/USED/Sdonut1.jpg","stimuli/organized/STATE/USED/Sdonut2.jpg","0"
"","1119","html-button-response","219","2.0.0","1485945","pl2pvk311h2","lemur","I'm not sure if this is right, but the only difference after pressing spacebar was the color difference in the plus sign afterwards, and that was quite confusing ","1","Which of these items did you see earlier?","","","","","test","","state","true","stimuli/organized/STATE/USED/Spie2.JPG","stimuli/organized/STATE/USED/Spie1.JPG","1"
"","2649","html-button-response","220","2.0.0","1488594","pl2pvk311h2","lemur","I'm not sure if this is right, but the only difference after pressing spacebar was the color difference in the plus sign afterwards, and that was quite confusing ","0","Which of these items did you see earlier?","","","","","test","","novel","true","stimuli/organized/Novel pairs (tested)/n13bdustpan.jpg","stimuli/organized/Novel pairs (tested)/n13ablueberries.jpg","0"
"","1091","html-button-response","221","2.0.0","1489685","pl2pvk311h2","lemur","I'm not sure if this is right, but the only difference after pressing spacebar was the color difference in the plus sign afterwards, and that was quite confusing ","1","Which of these items did you see earlier?","","","","","test","","state","true","stimuli/organized/STATE/USED/Sapplesgreenbasket2.jpg","stimuli/organized/STATE/USED/Sapplesgreenbasket1.jpg","1"
"","1438","html-button-response","222","2.0.0","1491124","pl2pvk311h2","lemur","I'm not sure if this is right, but the only difference after pressing spacebar was the color difference in the plus sign afterwards, and that was quite confusing ","0","Which of these items did you see earlier?","","","","","test","","state","false","stimuli/organized/STATE/USED/Sdrum2.jpg","stimuli/organized/STATE/USED/Sdrum1.jpg","1"
"","1929","html-button-response","223","2.0.0","1493053","pl2pvk311h2","lemur","I'm not sure if this is right, but the only difference after pressing spacebar was the color difference in the plus sign afterwards, and that was quite confusing ","0","Which of these items did you see earlier?","","","","","test","","exemplar","true","stimuli/organized/EXEMPLAR/USED/Ecalculator1.jpg","stimuli/organized/EXEMPLAR/USED/Ecalculator2.jpg","0"
"","1088","html-button-response","224","2.0.0","1494142","pl2pvk311h2","lemur","I'm not sure if this is right, but the only difference after pressing spacebar was the color difference in the plus sign afterwards, and that was quite confusing ","1","Which of these items did you see earlier?","","","","","test","","state","true","stimuli/organized/STATE/USED/Sgiftbox2.jpg","stimuli/organized/STATE/USED/Sgiftbox1.jpg","1"
"","848","html-button-response","225","2.0.0","1494991","pl2pvk311h2","lemur","I'm not sure if this is right, but the only difference after pressing spacebar was the color difference in the plus sign afterwards, and that was quite confusing ","1","Which of these items did you see earlier?","","","","","test","","novel","true","stimuli/organized/Novel pairs (tested)/n09apenguin.jpg","stimuli/organized/Novel pairs (tested)/n09bsaddle.jpg","1"
"","1453","html-button-response","226","2.0.0","1496444","pl2pvk311h2","lemur","I'm not sure if this is right, but the only difference after pressing spacebar was the color difference in the plus sign afterwards, and that was quite confusing ","0","Which of these items did you see earlier?","","","","","test","","state","false","stimuli/organized/STATE/USED/Scookies2.JPG","stimuli/organized/STATE/USED/Scookies1.JPG","1"
"","791","html-button-response","227","2.0.0","1497236","pl2pvk311h2","lemur","I'm not sure if this is right, but the only difference after pressing spacebar was the color difference in the plus sign afterwards, and that was quite confusing ","0","Which of these items did you see earlier?","","","","","test","","state","true","stimuli/organized/STATE/USED/Spotpan2.JPG","stimuli/organized/STATE/USED/Spotpan1.JPG","0"
"","2283","html-button-response","228","2.0.0","1499519","pl2pvk311h2","lemur","I'm not sure if this is right, but the only difference after pressing spacebar was the color difference in the plus sign afterwards, and that was quite confusing ","1","Which of these items did you see earlier?","","","","","test","","novel","true","stimuli/organized/Novel pairs (tested)/n18apretzel.jpg","stimuli/organized/Novel pairs (tested)/n18bsnail.jpg","1"
"","2031","html-button-response","229","2.0.0","1501551","pl2pvk311h2","lemur","I'm not sure if this is right, but the only difference after pressing spacebar was the color difference in the plus sign afterwards, and that was quite confusing ","1","Which of these items did you see earlier?","","","","","test","","exemplar","true","stimuli/organized/EXEMPLAR/USED/Ecabinet1.jpg","stimuli/organized/EXEMPLAR/USED/Ecabinet2.jpg","1"
"","1091","html-button-response","230","2.0.0","1502642","pl2pvk311h2","lemur","I'm not sure if this is right, but the only difference after pressing spacebar was the color difference in the plus sign afterwards, and that was quite confusing ","0","Which of these items did you see earlier?","","","","","test","","state","true","stimuli/organized/STATE/USED/Sbottles2.JPG","stimuli/organized/STATE/USED/Sbottles1.JPG","0"
"","1801","html-button-response","231","2.0.0","1504444","pl2pvk311h2","lemur","I'm not sure if this is right, but the only difference after pressing spacebar was the color difference in the plus sign afterwards, and that was quite confusing ","0","Which of these items did you see earlier?","","","","","test","","novel","true","stimuli/organized/Novel pairs (tested)/n20acarseat.jpg","stimuli/organized/Novel pairs (tested)/n20bshelf.jpg","0"
"","1278","html-button-response","232","2.0.0","1505723","pl2pvk311h2","lemur","I'm not sure if this is right, but the only difference after pressing spacebar was the color difference in the plus sign afterwards, and that was quite confusing ","1","Which of these items did you see earlier?","","","","","test","","novel","true","stimuli/organized/Novel pairs (tested)/n01aladybug.jpg","stimuli/organized/Novel pairs (tested)/n01bcoin.jpg","1"
"","958","html-button-response","233","2.0.0","1506681","pl2pvk311h2","lemur","I'm not sure if this is right, but the only difference after pressing spacebar was the color difference in the plus sign afterwards, and that was quite confusing ","0","Which of these items did you see earlier?","","","","","test","","novel","true","stimuli/organized/Novel pairs (tested)/n17bweddingdress.jpg","stimuli/organized/Novel pairs (tested)/n17avendingmachine.jpg","0"
"","2266","html-button-response","234","2.0.0","1508948","pl2pvk311h2","lemur","I'm not sure if this is right, but the only difference after pressing spacebar was the color difference in the plus sign afterwards, and that was quite confusing ","1","Which of these items did you see earlier?","","","","","test","","exemplar","true","stimuli/organized/EXEMPLAR/USED/Ecar1.jpg","stimuli/organized/EXEMPLAR/USED/Ecar2.jpg","1"
"","932","html-button-response","235","2.0.0","1509881","pl2pvk311h2","lemur","I'm not sure if this is right, but the only difference after pressing spacebar was the color difference in the plus sign afterwards, and that was quite confusing ","0","Which of these items did you see earlier?","","","","","test","","state","true","stimuli/organized/STATE/USED/Sjuiceglass2.JPG","stimuli/organized/STATE/USED/Sjuiceglass1.JPG","0"
"","1834","html-button-response","236","2.0.0","1511715","pl2pvk311h2","lemur","I'm not sure if this is right, but the only difference after pressing spacebar was the color difference in the plus sign afterwards, and that was quite confusing ","1","Which of these items did you see earlier?","","","","","test","","state","true","stimuli/organized/STATE/USED/Scontainer1.JPG","stimuli/organized/STATE/USED/Scontainer2.JPG","1"
"","1416","html-button-response","237","2.0.0","1513132","pl2pvk311h2","lemur","I'm not sure if this is right, but the only difference after pressing spacebar was the color difference in the plus sign afterwards, and that was quite confusing ","0","Which of these items did you see earlier?","","","","","test","","state","true","stimuli/organized/STATE/USED/Sgiftbag1.jpg","stimuli/organized/STATE/USED/Sgiftbag2.jpg","0"
"","1272","html-button-response","238","2.0.0","1514405","pl2pvk311h2","lemur","I'm not sure if this is right, but the only difference after pressing spacebar was the color difference in the plus sign afterwards, and that was quite confusing ","0","Which of these items did you see earlier?","","","","","test","","novel","true","stimuli/organized/Novel pairs (tested)/n03bbagel.jpg","stimuli/organized/Novel pairs (tested)/n03acamel.jpg","0"
"","1223","html-button-response","239","2.0.0","1515628","pl2pvk311h2","lemur","I'm not sure if this is right, but the only difference after pressing spacebar was the color difference in the plus sign afterwards, and that was quite confusing ","1","Which of these items did you see earlier?","","","","","test","","state","true","stimuli/organized/STATE/USED/Sdresser2.jpg","stimuli/organized/STATE/USED/Sdresser1.jpg","1"
"","1101","html-button-response","240","2.0.0","1516729","pl2pvk311h2","lemur","I'm not sure if this is right, but the only difference after pressing spacebar was the color difference in the plus sign afterwards, and that was quite confusing ","1","Which of these items did you see earlier?","","","","","test","","novel","true","stimuli/organized/Novel pairs (tested)/n12atelescope.jpg","stimuli/organized/Novel pairs (tested)/n12bwatch.jpg","1"
"","995","html-button-response","241","2.0.0","1517725","pl2pvk311h2","lemur","I'm not sure if this is right, but the only difference after pressing spacebar was the color difference in the plus sign afterwards, and that was quite confusing ","1","Which of these items did you see earlier?","","","","","test","","novel","true","stimuli/organized/Novel pairs (tested)/n11abatteries.jpg","stimuli/organized/Novel pairs (tested)/n11bsock.jpg","1"
"","937","html-button-response","242","2.0.0","1518663","pl2pvk311h2","lemur","I'm not sure if this is right, but the only difference after pressing spacebar was the color difference in the plus sign afterwards, and that was quite confusing ","0","Which of these items did you see earlier?","","","","","test","","novel","true","stimuli/organized/Novel pairs (tested)/n16bhammer.jpg","stimuli/organized/Novel pairs (tested)/n16abananas.jpg","0"
"","1028","html-button-response","243","2.0.0","1519691","pl2pvk311h2","lemur","I'm not sure if this is right, but the only difference after pressing spacebar was the color difference in the plus sign afterwards, and that was quite confusing ","1","Which of these items did you see earlier?","","","","","test","","exemplar","true","stimuli/organized/EXEMPLAR/USED/Efeather2.jpg","stimuli/organized/EXEMPLAR/USED/Efeather1.jpg","1"
"","10321","survey-html-form","244","2.0.0","1530014","pl2pvk311h2","lemur","I'm not sure if this is right, but the only difference after pressing spacebar was the color difference in the plus sign afterwards, and that was quite confusing ","{""age"":""23"",""gender"":""female"",""memory_experiment_experience"":""yes""}","","","","","","","","","","","",""
"","19678","survey-text","245","2.0.0","1549691","pl2pvk311h2","lemur","I'm not sure if this is right, but the only difference after pressing spacebar was the color difference in the plus sign afterwards, and that was quite confusing ","{""task_guess"":""active visual recall and recognition""}","","","","","","","","","","","",""
"","29229","survey-text","246","2.0.0","1578919","pl2pvk311h2","lemur","I'm not sure if this is right, but the only difference after pressing spacebar was the color difference in the plus sign afterwards, and that was quite confusing ","{""technical_issues_question"":""I'm not sure if this is right, but the only difference after pressing spacebar was the color difference in the plus sign afterwards, and that was quite confusing ""}","","","","","","","","","","","",""
