"success","rt","trial_type","trial_index","plugin_version","time_elapsed","random_id","participant","technical_issues","response","stimulus","timeout","failed_images","failed_audio","failed_video","trial_phase","is_repeat","test_type","correct","old_image","new_image","correct_position"
"true","23353","fullscreen","0","null","24358","pnheyqmuf9u","swan","No","","","","","","","","","","","","",""
"","3055","survey-text","1","2.0.0","27417","pnheyqmuf9u","swan","No","{""participant_id"":""swan""}","","","","","","","","","","","",""
"","7467","html-keyboard-response","2","2.0.0","34885","pnheyqmuf9u","swan","No","b","
      <p>In this experiment, a series of objects will be displayed.</p>
      <p>Try to memorize as much as possible about the objects.</p>
      <p>If the image is a <strong> repeat</strong>, press the SPACEBAR.</p>
      <p>Press any key to begin.</p>
    ","","","","","","","","","","",""
"true","","preload","3","2.0.0","35513","pnheyqmuf9u","swan","No","","","false","[]","[]","[]","","","","","","",""
"","null","html-keyboard-response","4","2.0.0","36514","pnheyqmuf9u","swan","No","null","<div style=""font-size:60px;"">+</div>","","","","","","","","","","",""
"","null","image-keyboard-response","5","2.0.0","39519","pnheyqmuf9u","swan","No","null","stimuli/organized/EXEMPLAR/USED/Egoggles2.jpg","","","","","memory","false","exemplar","true","","",""
"","null","html-keyboard-response","6","2.0.0","40521","pnheyqmuf9u","swan","No","null","<div style=""font-size:60px; color:black;"">+</div>","","","","","","","","","","",""
"","null","image-keyboard-response","7","2.0.0","43525","pnheyqmuf9u","swan","No","null","stimuli/organized/STATE/USED/Sdrum2.jpg","","","","","memory","false","state","true","","",""
"","null","html-keyboard-response","8","2.0.0","44527","pnheyqmuf9u","swan","No","null","<div style=""font-size:60px; color:black;"">+</div>","","","","","","","","","","",""
"","null","image-keyboard-response","9","2.0.0","47531","pnheyqmuf9u","swan","No","null","stimuli/organized/STATE/USED/Sdishes2.JPG","","","","","memory","false","state","true","","",""
"","null","html-keyboard-response","10","2.0.0","48534","pnheyqmuf9u","swan","No","null","<div style=""font-size:60px; color:black;"">+</div>","","","","","","","","","","",""
"","null","image-keyboard-response","11","2.0.0","51537","pnheyqmuf9u","swan","No","null","stimuli/organized/EXEMPLAR/USED/Eframe1.jpg","","","","","memory","false","exemplar","true","","",""
"","null","html-keyboard-response","12","2.0.0","52540","pnheyqmuf9u","swan","No","null","<div style=""font-size:60px; color:black;"">+</div>","","","","","","","","","","",""
"","null","image-keyboard-response","13","2.0.0","55543","pnheyqmuf9u","swan","No","null","stimuli/organized/Novel pairs (tested)/n13bdustpan.jpg","","","","","memory","false","novel","true","","",""
"","null","html-keyboard-response","14","2.0.0","56546","pnheyqmuf9u","swan","No","null","<div style=""font-size:60px; color:black;"">+</div>","","","","","","","","","","",""
"","null","image-keyboard-response","15","2.0.0","59548","pnheyqmuf9u","swan","No","null","stimuli/organized/EXEMPLAR/USED/Ebicycle1.jpg","","","","","memory","false","exemplar","true","","",""
"","null","html-keyboard-response","16","2.0.0","60551","pnheyqmuf9u","swan","No","null","<div style=""font-size:60px; color:black;"">+</div>","","","","","","","","","","",""
"","null","image-keyboard-response","17","2.0.0","63555","pnheyqmuf9u","swan","No","null","stimuli/organized/STATE/USED/Sdie1.jpg","","","","","memory","false","state","true","","",""
"","null","html-keyboard-response","18","2.0.0","64557","pnheyqmuf9u","swan","No","null","<div style=""font-size:60px; color:black;"">+</div>","","","","","","","","","","",""
"","null","image-keyboard-response","19","2.0.0","67560","pnheyqmuf9u","swan","No","null","stimuli/organized/EXEMPLAR/USED/Ecalculator2.jpg","","","","","memory","false","exemplar","true","","",""
"","null","html-keyboard-response","20","2.0.0","68562","pnheyqmuf9u","swan","No","null","<div style=""font-size:60px; color:black;"">+</div>","","","","","","","","","","",""
"","null","image-keyboard-response","21","2.0.0","71565","pnheyqmuf9u","swan","No","null","stimuli/organized/STATE/USED/Sbooks1.JPG","","","","","memory","false","state","true","","",""
"","null","html-keyboard-response","22","2.0.0","72568","pnheyqmuf9u","swan","No","null","<div style=""font-size:60px; color:black;"">+</div>","","","","","","","","","","",""
"","null","image-keyboard-response","23","2.0.0","75573","pnheyqmuf9u","swan","No","null","stimuli/organized/Novel pairs (tested)/n05abarrel.jpg","","","","","memory","false","novel","true","","",""
"","null","html-keyboard-response","24","2.0.0","76575","pnheyqmuf9u","swan","No","null","<div style=""font-size:60px; color:black;"">+</div>","","","","","","","","","","",""
"","null","image-keyboard-response","25","2.0.0","79577","pnheyqmuf9u","swan","No","null","stimuli/organized/STATE/USED/Sbabytoy2.JPG","","","","","memory","false","state","true","","",""
"","null","html-keyboard-response","26","2.0.0","80580","pnheyqmuf9u","swan","No","null","<div style=""font-size:60px; color:black;"">+</div>","","","","","","","","","","",""
"","null","image-keyboard-response","27","2.0.0","83583","pnheyqmuf9u","swan","No","null","stimuli/organized/EXEMPLAR/USED/Efeather1.jpg","","","","","memory","false","exemplar","true","","",""
"","null","html-keyboard-response","28","2.0.0","84586","pnheyqmuf9u","swan","No","null","<div style=""font-size:60px; color:black;"">+</div>","","","","","","","","","","",""
"","null","image-keyboard-response","29","2.0.0","87589","pnheyqmuf9u","swan","No","null","stimuli/organized/EXEMPLAR/USED/Ebasket2.jpg","","","","","memory","false","exemplar","true","","",""
"","null","html-keyboard-response","30","2.0.0","88592","pnheyqmuf9u","swan","No","null","<div style=""font-size:60px; color:black;"">+</div>","","","","","","","","","","",""
"","null","image-keyboard-response","31","2.0.0","91594","pnheyqmuf9u","swan","No","null","stimuli/organized/Novel pairs (tested)/n19apickle.jpg","","","","","memory","false","novel","true","","",""
"","null","html-keyboard-response","32","2.0.0","92596","pnheyqmuf9u","swan","No","null","<div style=""font-size:60px; color:black;"">+</div>","","","","","","","","","","",""
"","null","image-keyboard-response","33","2.0.0","95599","pnheyqmuf9u","swan","No","null","stimuli/organized/STATE/USED/Scrayons1.jpg","","","","","memory","false","state","true","","",""
"","null","html-keyboard-response","34","2.0.0","96602","pnheyqmuf9u","swan","No","null","<div style=""font-size:60px; color:black;"">+</div>","","","","","","","","","","",""
"","null","image-keyboard-response","35","2.0.0","99606","pnheyqmuf9u","swan","No","null","stimuli/organized/Novel pairs (tested)/n15bfootball.jpg","","","","","memory","false","novel","true","","",""
"","null","html-keyboard-response","36","2.0.0","100609","pnheyqmuf9u","swan","No","null","<div style=""font-size:60px; color:black;"">+</div>","","","","","","","","","","",""
"","858","image-keyboard-response","37","2.0.0","103612","pnheyqmuf9u","swan","No"," ","stimuli/organized/EXEMPLAR/USED/Eframe1.jpg","","","","","memory","true","exemplar","true","","",""
"","null","html-keyboard-response","38","2.0.0","104614","pnheyqmuf9u","swan","No","null","<div style=""font-size:60px; color:green;"">+</div>","","","","","","","","","","",""
"","null","image-keyboard-response","39","2.0.0","107617","pnheyqmuf9u","swan","No","null","stimuli/organized/STATE/USED/Sabacus1.jpg","","","","","memory","false","state","true","","",""
"","null","html-keyboard-response","40","2.0.0","108620","pnheyqmuf9u","swan","No","null","<div style=""font-size:60px; color:black;"">+</div>","","","","","","","","","","",""
"","null","image-keyboard-response","41","2.0.0","111623","pnheyqmuf9u","swan","No","null","stimuli/organized/STATE/USED/Scontainer2.JPG","","","","","memory","false","state","true","","",""
"","null","html-keyboard-response","42","2.0.0","112625","pnheyqmuf9u","swan","No","null","<div style=""font-size:60px; color:black;"">+</div>","","","","","","","","","","",""
"","null","image-keyboard-response","43","2.0.0","115628","pnheyqmuf9u","swan","No","null","stimuli/organized/Novel pairs (tested)/n20acarseat.jpg","","","","","memory","false","novel","true","","",""
"","null","html-keyboard-response","44","2.0.0","116631","pnheyqmuf9u","swan","No","null","<div style=""font-size:60px; color:black;"">+</div>","","","","","","","","","","",""
"","null","image-keyboard-response","45","2.0.0","119634","pnheyqmuf9u","swan","No","null","stimuli/organized/STATE/USED/Sphone1.JPG","","","","","memory","false","state","true","","",""
"","null","html-keyboard-response","46","2.0.0","120637","pnheyqmuf9u","swan","No","null","<div style=""font-size:60px; color:black;"">+</div>","","","","","","","","","","",""
"","null","image-keyboard-response","47","2.0.0","123640","pnheyqmuf9u","swan","No","null","stimuli/organized/EXEMPLAR/USED/Ebread1.jpg","","","","","memory","false","exemplar","true","","",""
"","null","html-keyboard-response","48","2.0.0","124642","pnheyqmuf9u","swan","No","null","<div style=""font-size:60px; color:black;"">+</div>","","","","","","","","","","",""
"","null","image-keyboard-response","49","2.0.0","127646","pnheyqmuf9u","swan","No","null","stimuli/organized/Novel pairs (tested)/n09bsaddle.jpg","","","","","memory","false","novel","true","","",""
"","null","html-keyboard-response","50","2.0.0","128648","pnheyqmuf9u","swan","No","null","<div style=""font-size:60px; color:black;"">+</div>","","","","","","","","","","",""
"","null","image-keyboard-response","51","2.0.0","131651","pnheyqmuf9u","swan","No","null","stimuli/organized/Novel pairs (tested)/n16abananas.jpg","","","","","memory","false","novel","true","","",""
"","null","html-keyboard-response","52","2.0.0","132653","pnheyqmuf9u","swan","No","null","<div style=""font-size:60px; color:black;"">+</div>","","","","","","","","","","",""
"","null","image-keyboard-response","53","2.0.0","135656","pnheyqmuf9u","swan","No","null","stimuli/organized/STATE/USED/Sflask1.jpg","","","","","memory","false","state","true","","",""
"","null","html-keyboard-response","54","2.0.0","136658","pnheyqmuf9u","swan","No","null","<div style=""font-size:60px; color:black;"">+</div>","","","","","","","","","","",""
"","null","image-keyboard-response","55","2.0.0","139662","pnheyqmuf9u","swan","No","null","stimuli/organized/STATE/USED/Sdonut1.jpg","","","","","memory","false","state","true","","",""
"","null","html-keyboard-response","56","2.0.0","140664","pnheyqmuf9u","swan","No","null","<div style=""font-size:60px; color:black;"">+</div>","","","","","","","","","","",""
"","null","image-keyboard-response","57","2.0.0","143668","pnheyqmuf9u","swan","No","null","stimuli/organized/STATE/USED/Spie2.JPG","","","","","memory","false","state","true","","",""
"","null","html-keyboard-response","58","2.0.0","144671","pnheyqmuf9u","swan","No","null","<div style=""font-size:60px; color:black;"">+</div>","","","","","","","","","","",""
"","null","image-keyboard-response","59","2.0.0","147674","pnheyqmuf9u","swan","No","null","stimuli/organized/STATE/USED/Shairbrush2.jpg","","","","","memory","false","state","true","","",""
"","null","html-keyboard-response","60","2.0.0","148677","pnheyqmuf9u","swan","No","null","<div style=""font-size:60px; color:black;"">+</div>","","","","","","","","","","",""
"","766","image-keyboard-response","61","2.0.0","151680","pnheyqmuf9u","swan","No"," ","stimuli/organized/Novel pairs (tested)/n19apickle.jpg","","","","","memory","true","novel","true","","",""
"","null","html-keyboard-response","62","2.0.0","152683","pnheyqmuf9u","swan","No","null","<div style=""font-size:60px; color:green;"">+</div>","","","","","","","","","","",""
"","null","image-keyboard-response","63","2.0.0","155686","pnheyqmuf9u","swan","No","null","stimuli/organized/EXEMPLAR/USED/Ecabinet2.jpg","","","","","memory","false","exemplar","true","","",""
"","null","html-keyboard-response","64","2.0.0","156688","pnheyqmuf9u","swan","No","null","<div style=""font-size:60px; color:black;"">+</div>","","","","","","","","","","",""
"","null","image-keyboard-response","65","2.0.0","159691","pnheyqmuf9u","swan","No","null","stimuli/organized/Novel pairs (tested)/n10bturkey.jpg","","","","","memory","false","novel","true","","",""
"","null","html-keyboard-response","66","2.0.0","160693","pnheyqmuf9u","swan","No","null","<div style=""font-size:60px; color:black;"">+</div>","","","","","","","","","","",""
"","null","image-keyboard-response","67","2.0.0","163697","pnheyqmuf9u","swan","No","null","stimuli/organized/STATE/USED/Sbottles1.JPG","","","","","memory","false","state","true","","",""
"","null","html-keyboard-response","68","2.0.0","164699","pnheyqmuf9u","swan","No","null","<div style=""font-size:60px; color:black;"">+</div>","","","","","","","","","","",""
"","846","image-keyboard-response","69","2.0.0","167703","pnheyqmuf9u","swan","No"," ","stimuli/organized/STATE/USED/Sbooks1.JPG","","","","","memory","true","state","true","","",""
"","null","html-keyboard-response","70","2.0.0","168705","pnheyqmuf9u","swan","No","null","<div style=""font-size:60px; color:green;"">+</div>","","","","","","","","","","",""
"","null","image-keyboard-response","71","2.0.0","171708","pnheyqmuf9u","swan","No","null","stimuli/organized/EXEMPLAR/USED/Ebell2.jpg","","","","","memory","false","exemplar","true","","",""
"","null","html-keyboard-response","72","2.0.0","172711","pnheyqmuf9u","swan","No","null","<div style=""font-size:60px; color:black;"">+</div>","","","","","","","","","","",""
"","null","image-keyboard-response","73","2.0.0","175714","pnheyqmuf9u","swan","No","null","stimuli/organized/STATE/USED/Scoffeemaker2.JPG","","","","","memory","false","state","true","","",""
"","null","html-keyboard-response","74","2.0.0","176716","pnheyqmuf9u","swan","No","null","<div style=""font-size:60px; color:black;"">+</div>","","","","","","","","","","",""
"","null","image-keyboard-response","75","2.0.0","179720","pnheyqmuf9u","swan","No","null","stimuli/organized/Novel pairs (tested)/n04ayarn.jpg","","","","","memory","false","novel","true","","",""
"","null","html-keyboard-response","76","2.0.0","180723","pnheyqmuf9u","swan","No","null","<div style=""font-size:60px; color:black;"">+</div>","","","","","","","","","","",""
"","null","image-keyboard-response","77","2.0.0","183726","pnheyqmuf9u","swan","No","null","stimuli/organized/Novel pairs (tested)/n14acigarette.jpg","","","","","memory","false","novel","true","","",""
"","null","html-keyboard-response","78","2.0.0","184729","pnheyqmuf9u","swan","No","null","<div style=""font-size:60px; color:black;"">+</div>","","","","","","","","","","",""
"","null","image-keyboard-response","79","2.0.0","187733","pnheyqmuf9u","swan","No","null","stimuli/organized/STATE/USED/Sdresser1.jpg","","","","","memory","false","state","true","","",""
"","null","html-keyboard-response","80","2.0.0","188735","pnheyqmuf9u","swan","No","null","<div style=""font-size:60px; color:black;"">+</div>","","","","","","","","","","",""
"","null","image-keyboard-response","81","2.0.0","191739","pnheyqmuf9u","swan","No","null","stimuli/organized/STATE/USED/Schinesefoodbox2.jpg","","","","","memory","false","state","true","","",""
"","null","html-keyboard-response","82","2.0.0","192741","pnheyqmuf9u","swan","No","null","<div style=""font-size:60px; color:black;"">+</div>","","","","","","","","","","",""
"","null","image-keyboard-response","83","2.0.0","195745","pnheyqmuf9u","swan","No","null","stimuli/organized/EXEMPLAR/USED/Eglobe2.jpg","","","","","memory","false","exemplar","true","","",""
"","null","html-keyboard-response","84","2.0.0","196747","pnheyqmuf9u","swan","No","null","<div style=""font-size:60px; color:black;"">+</div>","","","","","","","","","","",""
"","null","image-keyboard-response","85","2.0.0","199750","pnheyqmuf9u","swan","No","null","stimuli/organized/EXEMPLAR/USED/Egame1.jpg","","","","","memory","false","exemplar","true","","",""
"","null","html-keyboard-response","86","2.0.0","200753","pnheyqmuf9u","swan","No","null","<div style=""font-size:60px; color:black;"">+</div>","","","","","","","","","","",""
"","null","image-keyboard-response","87","2.0.0","203756","pnheyqmuf9u","swan","No","null","stimuli/organized/STATE/USED/Sgiftbox2.jpg","","","","","memory","false","state","true","","",""
"","null","html-keyboard-response","88","2.0.0","204757","pnheyqmuf9u","swan","No","null","<div style=""font-size:60px; color:black;"">+</div>","","","","","","","","","","",""
"","null","image-keyboard-response","89","2.0.0","207760","pnheyqmuf9u","swan","No","null","stimuli/organized/Novel pairs (tested)/n01aladybug.jpg","","","","","memory","false","novel","true","","",""
"","null","html-keyboard-response","90","2.0.0","208763","pnheyqmuf9u","swan","No","null","<div style=""font-size:60px; color:black;"">+</div>","","","","","","","","","","",""
"","null","image-keyboard-response","91","2.0.0","211766","pnheyqmuf9u","swan","No","null","stimuli/organized/Novel pairs (tested)/n02bsafetypin.jpg","","","","","memory","false","novel","true","","",""
"","null","html-keyboard-response","92","2.0.0","212769","pnheyqmuf9u","swan","No","null","<div style=""font-size:60px; color:black;"">+</div>","","","","","","","","","","",""
"","null","image-keyboard-response","93","2.0.0","215772","pnheyqmuf9u","swan","No","null","stimuli/organized/STATE/USED/Sfiretrucktoy2.jpg","","","","","memory","false","state","true","","",""
"","null","html-keyboard-response","94","2.0.0","216774","pnheyqmuf9u","swan","No","null","<div style=""font-size:60px; color:black;"">+</div>","","","","","","","","","","",""
"","null","image-keyboard-response","95","2.0.0","219777","pnheyqmuf9u","swan","No","null","stimuli/organized/STATE/USED/Sgrinder2.jpg","","","","","memory","false","state","true","","",""
"","null","html-keyboard-response","96","2.0.0","220780","pnheyqmuf9u","swan","No","null","<div style=""font-size:60px; color:black;"">+</div>","","","","","","","","","","",""
"","null","image-keyboard-response","97","2.0.0","223783","pnheyqmuf9u","swan","No","null","stimuli/organized/EXEMPLAR/USED/Edispenser2.jpg","","","","","memory","false","exemplar","true","","",""
"","null","html-keyboard-response","98","2.0.0","224786","pnheyqmuf9u","swan","No","null","<div style=""font-size:60px; color:black;"">+</div>","","","","","","","","","","",""
"","null","image-keyboard-response","99","2.0.0","227790","pnheyqmuf9u","swan","No","null","stimuli/organized/EXEMPLAR/USED/Egrapes1.jpg","","","","","memory","false","exemplar","true","","",""
"","null","html-keyboard-response","100","2.0.0","228793","pnheyqmuf9u","swan","No","null","<div style=""font-size:60px; color:black;"">+</div>","","","","","","","","","","",""
"","null","image-keyboard-response","101","2.0.0","231796","pnheyqmuf9u","swan","No","null","stimuli/organized/EXEMPLAR/USED/Echocolatebar2.jpg","","","","","memory","false","exemplar","true","","",""
"","null","html-keyboard-response","102","2.0.0","232798","pnheyqmuf9u","swan","No","null","<div style=""font-size:60px; color:black;"">+</div>","","","","","","","","","","",""
"","null","image-keyboard-response","103","2.0.0","235801","pnheyqmuf9u","swan","No","null","stimuli/organized/STATE/USED/Seggs1.jpg","","","","","memory","false","state","true","","",""
"","null","html-keyboard-response","104","2.0.0","236804","pnheyqmuf9u","swan","No","null","<div style=""font-size:60px; color:black;"">+</div>","","","","","","","","","","",""
"","null","image-keyboard-response","105","2.0.0","239806","pnheyqmuf9u","swan","No","null","stimuli/organized/STATE/USED/Sscanner2.JPG","","","","","memory","false","state","true","","",""
"","null","html-keyboard-response","106","2.0.0","240809","pnheyqmuf9u","swan","No","null","<div style=""font-size:60px; color:black;"">+</div>","","","","","","","","","","",""
"","null","image-keyboard-response","107","2.0.0","243811","pnheyqmuf9u","swan","No","null","stimuli/organized/STATE/USED/Sapplesgreenbasket1.jpg","","","","","memory","false","state","true","","",""
"","null","html-keyboard-response","108","2.0.0","244813","pnheyqmuf9u","swan","No","null","<div style=""font-size:60px; color:black;"">+</div>","","","","","","","","","","",""
"","null","image-keyboard-response","109","2.0.0","247817","pnheyqmuf9u","swan","No","null","stimuli/organized/STATE/USED/Sscissors1.JPG","","","","","memory","false","state","true","","",""
"","null","html-keyboard-response","110","2.0.0","248818","pnheyqmuf9u","swan","No","null","<div style=""font-size:60px; color:black;"">+</div>","","","","","","","","","","",""
"","null","image-keyboard-response","111","2.0.0","251821","pnheyqmuf9u","swan","No","null","stimuli/organized/STATE/USED/Sbox1.jpg","","","","","memory","false","state","true","","",""
"","null","html-keyboard-response","112","2.0.0","252824","pnheyqmuf9u","swan","No","null","<div style=""font-size:60px; color:black;"">+</div>","","","","","","","","","","",""
"","null","image-keyboard-response","113","2.0.0","255827","pnheyqmuf9u","swan","No","null","stimuli/organized/Novel pairs (tested)/n11bsock.jpg","","","","","memory","false","novel","true","","",""
"","null","html-keyboard-response","114","2.0.0","256829","pnheyqmuf9u","swan","No","null","<div style=""font-size:60px; color:black;"">+</div>","","","","","","","","","","",""
"","null","image-keyboard-response","115","2.0.0","259832","pnheyqmuf9u","swan","No","null","stimuli/organized/STATE/USED/Scookies1.JPG","","","","","memory","false","state","true","","",""
"","null","html-keyboard-response","116","2.0.0","260834","pnheyqmuf9u","swan","No","null","<div style=""font-size:60px; color:black;"">+</div>","","","","","","","","","","",""
"","726","image-keyboard-response","117","2.0.0","263836","pnheyqmuf9u","swan","No"," ","stimuli/organized/Novel pairs (tested)/n16abananas.jpg","","","","","memory","true","novel","true","","",""
"","null","html-keyboard-response","118","2.0.0","264838","pnheyqmuf9u","swan","No","null","<div style=""font-size:60px; color:green;"">+</div>","","","","","","","","","","",""
"","null","image-keyboard-response","119","2.0.0","267841","pnheyqmuf9u","swan","No","null","stimuli/organized/STATE/USED/Spotpan2.JPG","","","","","memory","false","state","true","","",""
"","null","html-keyboard-response","120","2.0.0","268843","pnheyqmuf9u","swan","No","null","<div style=""font-size:60px; color:black;"">+</div>","","","","","","","","","","",""
"","null","image-keyboard-response","121","2.0.0","271846","pnheyqmuf9u","swan","No","null","stimuli/organized/EXEMPLAR/USED/Efan1.jpg","","","","","memory","false","exemplar","true","","",""
"","null","html-keyboard-response","122","2.0.0","272848","pnheyqmuf9u","swan","No","null","<div style=""font-size:60px; color:black;"">+</div>","","","","","","","","","","",""
"","null","image-keyboard-response","123","2.0.0","275850","pnheyqmuf9u","swan","No","null","stimuli/organized/Novel pairs (tested)/n06blipstick.jpg","","","","","memory","false","novel","true","","",""
"","null","html-keyboard-response","124","2.0.0","276852","pnheyqmuf9u","swan","No","null","<div style=""font-size:60px; color:black;"">+</div>","","","","","","","","","","",""
"","null","image-keyboard-response","125","2.0.0","279855","pnheyqmuf9u","swan","No","null","stimuli/organized/Novel pairs (tested)/n08aoven.jpg","","","","","memory","false","novel","true","","",""
"","null","html-keyboard-response","126","2.0.0","280857","pnheyqmuf9u","swan","No","null","<div style=""font-size:60px; color:black;"">+</div>","","","","","","","","","","",""
"","null","image-keyboard-response","127","2.0.0","283860","pnheyqmuf9u","swan","No","null","stimuli/organized/STATE/USED/Slaptop1.JPG","","","","","memory","false","state","true","","",""
"","null","html-keyboard-response","128","2.0.0","284862","pnheyqmuf9u","swan","No","null","<div style=""font-size:60px; color:black;"">+</div>","","","","","","","","","","",""
"","null","image-keyboard-response","129","2.0.0","287865","pnheyqmuf9u","swan","No","null","stimuli/organized/STATE/USED/Sbreadbox1.JPG","","","","","memory","false","state","true","","",""
"","null","html-keyboard-response","130","2.0.0","288867","pnheyqmuf9u","swan","No","null","<div style=""font-size:60px; color:black;"">+</div>","","","","","","","","","","",""
"","null","image-keyboard-response","131","2.0.0","291870","pnheyqmuf9u","swan","No","null","stimuli/organized/STATE/USED/Sbureau2.JPG","","","","","memory","false","state","true","","",""
"","null","html-keyboard-response","132","2.0.0","292872","pnheyqmuf9u","swan","No","null","<div style=""font-size:60px; color:black;"">+</div>","","","","","","","","","","",""
"","null","image-keyboard-response","133","2.0.0","295875","pnheyqmuf9u","swan","No","null","stimuli/organized/Novel pairs (tested)/n07bswimmingpool.jpg","","","","","memory","false","novel","true","","",""
"","null","html-keyboard-response","134","2.0.0","296877","pnheyqmuf9u","swan","No","null","<div style=""font-size:60px; color:black;"">+</div>","","","","","","","","","","",""
"","null","image-keyboard-response","135","2.0.0","299879","pnheyqmuf9u","swan","No","null","stimuli/organized/EXEMPLAR/USED/Ecamera1.jpg","","","","","memory","false","exemplar","true","","",""
"","null","html-keyboard-response","136","2.0.0","300882","pnheyqmuf9u","swan","No","null","<div style=""font-size:60px; color:black;"">+</div>","","","","","","","","","","",""
"","null","image-keyboard-response","137","2.0.0","303885","pnheyqmuf9u","swan","No","null","stimuli/organized/EXEMPLAR/USED/Ebracelet1.jpg","","","","","memory","false","exemplar","true","","",""
"","null","html-keyboard-response","138","2.0.0","304887","pnheyqmuf9u","swan","No","null","<div style=""font-size:60px; color:black;"">+</div>","","","","","","","","","","",""
"","null","image-keyboard-response","139","2.0.0","307890","pnheyqmuf9u","swan","No","null","stimuli/organized/STATE/USED/Sjuiceglass1.JPG","","","","","memory","false","state","true","","",""
"","null","html-keyboard-response","140","2.0.0","308893","pnheyqmuf9u","swan","No","null","<div style=""font-size:60px; color:black;"">+</div>","","","","","","","","","","",""
"","null","image-keyboard-response","141","2.0.0","311896","pnheyqmuf9u","swan","No","null","stimuli/organized/EXEMPLAR/USED/Ecar2.jpg","","","","","memory","false","exemplar","true","","",""
"","null","html-keyboard-response","142","2.0.0","312898","pnheyqmuf9u","swan","No","null","<div style=""font-size:60px; color:black;"">+</div>","","","","","","","","","","",""
"","null","image-keyboard-response","143","2.0.0","315901","pnheyqmuf9u","swan","No","null","stimuli/organized/EXEMPLAR/USED/Econe1.jpg","","","","","memory","false","exemplar","true","","",""
"","null","html-keyboard-response","144","2.0.0","316904","pnheyqmuf9u","swan","No","null","<div style=""font-size:60px; color:black;"">+</div>","","","","","","","","","","",""
"","null","image-keyboard-response","145","2.0.0","319908","pnheyqmuf9u","swan","No","null","stimuli/organized/Novel pairs (tested)/n12bwatch.jpg","","","","","memory","false","novel","true","","",""
"","null","html-keyboard-response","146","2.0.0","320911","pnheyqmuf9u","swan","No","null","<div style=""font-size:60px; color:black;"">+</div>","","","","","","","","","","",""
"","null","image-keyboard-response","147","2.0.0","323914","pnheyqmuf9u","swan","No","null","stimuli/organized/Novel pairs (tested)/n17avendingmachine.jpg","","","","","memory","false","novel","true","","",""
"","null","html-keyboard-response","148","2.0.0","324916","pnheyqmuf9u","swan","No","null","<div style=""font-size:60px; color:black;"">+</div>","","","","","","","","","","",""
"","null","image-keyboard-response","149","2.0.0","327920","pnheyqmuf9u","swan","No","null","stimuli/organized/STATE/USED/Sgiftbag2.jpg","","","","","memory","false","state","true","","",""
"","null","html-keyboard-response","150","2.0.0","328922","pnheyqmuf9u","swan","No","null","<div style=""font-size:60px; color:black;"">+</div>","","","","","","","","","","",""
"","null","image-keyboard-response","151","2.0.0","331925","pnheyqmuf9u","swan","No","null","stimuli/organized/Novel pairs (tested)/n03bbagel.jpg","","","","","memory","false","novel","true","","",""
"","null","html-keyboard-response","152","2.0.0","332927","pnheyqmuf9u","swan","No","null","<div style=""font-size:60px; color:black;"">+</div>","","","","","","","","","","",""
"","null","image-keyboard-response","153","2.0.0","335930","pnheyqmuf9u","swan","No","null","stimuli/organized/STATE/USED/Sdryer1.jpg","","","","","memory","false","state","true","","",""
"","null","html-keyboard-response","154","2.0.0","336933","pnheyqmuf9u","swan","No","null","<div style=""font-size:60px; color:black;"">+</div>","","","","","","","","","","",""
"","null","image-keyboard-response","155","2.0.0","339936","pnheyqmuf9u","swan","No","null","stimuli/organized/STATE/USED/Sbrushes1.jpg","","","","","memory","false","state","true","","",""
"","null","html-keyboard-response","156","2.0.0","340938","pnheyqmuf9u","swan","No","null","<div style=""font-size:60px; color:black;"">+</div>","","","","","","","","","","",""
"","879","image-keyboard-response","157","2.0.0","343942","pnheyqmuf9u","swan","No"," ","stimuli/organized/EXEMPLAR/USED/Efan1.jpg","","","","","memory","true","exemplar","true","","",""
"","null","html-keyboard-response","158","2.0.0","344945","pnheyqmuf9u","swan","No","null","<div style=""font-size:60px; color:green;"">+</div>","","","","","","","","","","",""
"","null","image-keyboard-response","159","2.0.0","347948","pnheyqmuf9u","swan","No","null","stimuli/organized/STATE/USED/Sbriefcase2.jpg","","","","","memory","false","state","true","","",""
"","null","html-keyboard-response","160","2.0.0","348950","pnheyqmuf9u","swan","No","null","<div style=""font-size:60px; color:black;"">+</div>","","","","","","","","","","",""
"","1093","image-keyboard-response","161","2.0.0","351954","pnheyqmuf9u","swan","No"," ","stimuli/organized/STATE/USED/Sbelt2.jpg","","","","","memory","false","state","false","","",""
"","null","html-keyboard-response","162","2.0.0","352956","pnheyqmuf9u","swan","No","null","<div style=""font-size:60px; color:red;"">+</div>","","","","","","","","","","",""
"","null","image-keyboard-response","163","2.0.0","355960","pnheyqmuf9u","swan","No","null","stimuli/organized/EXEMPLAR/USED/Echisel2.jpg","","","","","memory","false","exemplar","true","","",""
"","null","html-keyboard-response","164","2.0.0","356962","pnheyqmuf9u","swan","No","null","<div style=""font-size:60px; color:black;"">+</div>","","","","","","","","","","",""
"","null","image-keyboard-response","165","2.0.0","359965","pnheyqmuf9u","swan","No","null","stimuli/organized/Novel pairs (tested)/n18bsnail.jpg","","","","","memory","false","novel","true","","",""
"","2379","html-button-response","166","2.0.0","362346","pnheyqmuf9u","swan","No","0","<p>You have completed the study phase.</p><p>Take a short break. Press the button below when you are ready to continue.</p>","","","","","","","","","","",""
"","3299","html-keyboard-response","167","2.0.0","365646","pnheyqmuf9u","swan","No"," ","<p>You will now be shown pairs of images.</p><p>Select the image you remember seeing during the study phase.</p><p>Focus on accuracy, not speed.</p><p>Press any key to begin.</p>","","","","","","","","","","",""
"","1360","html-button-response","168","2.0.0","367007","pnheyqmuf9u","swan","No","1","Which of these items did you see earlier?","","","","","test","","state","true","stimuli/organized/STATE/USED/Sphone1.JPG","stimuli/organized/STATE/USED/Sphone2.JPG","1"
"","1678","html-button-response","169","2.0.0","368686","pnheyqmuf9u","swan","No","0","Which of these items did you see earlier?","","","","","test","","exemplar","true","stimuli/organized/EXEMPLAR/USED/Ecar2.jpg","stimuli/organized/EXEMPLAR/USED/Ecar1.jpg","0"
"","1186","html-button-response","170","2.0.0","369874","pnheyqmuf9u","swan","No","1","Which of these items did you see earlier?","","","","","test","","state","true","stimuli/organized/STATE/USED/Sdryer1.jpg","stimuli/organized/STATE/USED/Sdryer2.jpg","1"
"","1649","html-button-response","171","2.0.0","371524","pnheyqmuf9u","swan","No","1","Which of these items did you see earlier?","","","","","test","","state","true","stimuli/organized/STATE/USED/Sdie1.jpg","stimuli/organized/STATE/USED/Sdie2.jpg","1"
"","1523","html-button-response","172","2.0.0","373049","pnheyqmuf9u","swan","No","0","Which of these items did you see earlier?","","","","","test","","state","true","stimuli/organized/STATE/USED/Sabacus1.jpg","stimuli/organized/STATE/USED/Sabacus2.jpg","0"
"","1216","html-button-response","173","2.0.0","374266","pnheyqmuf9u","swan","No","1","Which of these items did you see earlier?","","","","","test","","novel","true","stimuli/organized/Novel pairs (tested)/n02bsafetypin.jpg","stimuli/organized/Novel pairs (tested)/n02aaxe.jpg","1"
"","1699","html-button-response","174","2.0.0","375965","pnheyqmuf9u","swan","No","0","Which of these items did you see earlier?","","","","","test","","state","true","stimuli/organized/STATE/USED/Sscanner2.JPG","stimuli/organized/STATE/USED/Sscanner1.JPG","0"
"","1049","html-button-response","175","2.0.0","377016","pnheyqmuf9u","swan","No","0","Which of these items did you see earlier?","","","","","test","","exemplar","true","stimuli/organized/EXEMPLAR/USED/Echisel2.jpg","stimuli/organized/EXEMPLAR/USED/Echisel1.jpg","0"
"","2028","html-button-response","176","2.0.0","379045","pnheyqmuf9u","swan","No","0","Which of these items did you see earlier?","","","","","test","","exemplar","true","stimuli/organized/EXEMPLAR/USED/Eframe1.jpg","stimuli/organized/EXEMPLAR/USED/Eframe2.jpg","0"
"","2053","html-button-response","177","2.0.0","381099","pnheyqmuf9u","swan","No","0","Which of these items did you see earlier?","","","","","test","","exemplar","false","stimuli/organized/EXEMPLAR/USED/Ecabinet2.jpg","stimuli/organized/EXEMPLAR/USED/Ecabinet1.jpg","1"
"","1111","html-button-response","178","2.0.0","382211","pnheyqmuf9u","swan","No","1","Which of these items did you see earlier?","","","","","test","","novel","true","stimuli/organized/Novel pairs (tested)/n16abananas.jpg","stimuli/organized/Novel pairs (tested)/n16bhammer.jpg","1"
"","2036","html-button-response","179","2.0.0","384249","pnheyqmuf9u","swan","No","0","Which of these items did you see earlier?","","","","","test","","state","true","stimuli/organized/STATE/USED/Shairbrush2.jpg","stimuli/organized/STATE/USED/Shairbrush1.jpg","0"
"","4240","html-button-response","180","2.0.0","388491","pnheyqmuf9u","swan","No","1","Which of these items did you see earlier?","","","","","test","","state","true","stimuli/organized/STATE/USED/Sdishes2.JPG","stimuli/organized/STATE/USED/Sdishes1.JPG","1"
"","1353","html-button-response","181","2.0.0","389845","pnheyqmuf9u","swan","No","1","Which of these items did you see earlier?","","","","","test","","state","true","stimuli/organized/STATE/USED/Sgiftbag2.jpg","stimuli/organized/STATE/USED/Sgiftbag1.jpg","1"
"","1211","html-button-response","182","2.0.0","391057","pnheyqmuf9u","swan","No","0","Which of these items did you see earlier?","","","","","test","","novel","true","stimuli/organized/Novel pairs (tested)/n01aladybug.jpg","stimuli/organized/Novel pairs (tested)/n01bcoin.jpg","0"
"","1003","html-button-response","183","2.0.0","392061","pnheyqmuf9u","swan","No","1","Which of these items did you see earlier?","","","","","test","","state","true","stimuli/organized/STATE/USED/Slaptop1.JPG","stimuli/organized/STATE/USED/Slaptop2.JPG","1"
"","1199","html-button-response","184","2.0.0","393261","pnheyqmuf9u","swan","No","1","Which of these items did you see earlier?","","","","","test","","novel","true","stimuli/organized/Novel pairs (tested)/n20acarseat.jpg","stimuli/organized/Novel pairs (tested)/n20bshelf.jpg","1"
"","1540","html-button-response","185","2.0.0","394803","pnheyqmuf9u","swan","No","1","Which of these items did you see earlier?","","","","","test","","state","false","stimuli/organized/STATE/USED/Sflask1.jpg","stimuli/organized/STATE/USED/Sflask2.jpg","0"
"","1086","html-button-response","186","2.0.0","395891","pnheyqmuf9u","swan","No","1","Which of these items did you see earlier?","","","","","test","","exemplar","true","stimuli/organized/EXEMPLAR/USED/Egoggles2.jpg","stimuli/organized/EXEMPLAR/USED/Egoggles1.jpg","1"
"","4941","html-button-response","187","2.0.0","400833","pnheyqmuf9u","swan","No","1","Which of these items did you see earlier?","","","","","test","","state","true","stimuli/organized/STATE/USED/Seggs1.jpg","stimuli/organized/STATE/USED/Seggs2.jpg","1"
"","1415","html-button-response","188","2.0.0","402249","pnheyqmuf9u","swan","No","1","Which of these items did you see earlier?","","","","","test","","state","true","stimuli/organized/STATE/USED/Sbabytoy2.JPG","stimuli/organized/STATE/USED/Sbabytoy1.JPG","1"
"","1161","html-button-response","189","2.0.0","403411","pnheyqmuf9u","swan","No","0","Which of these items did you see earlier?","","","","","test","","exemplar","true","stimuli/organized/EXEMPLAR/USED/Econe1.jpg","stimuli/organized/EXEMPLAR/USED/Econe2.jpg","0"
"","1265","html-button-response","190","2.0.0","404678","pnheyqmuf9u","swan","No","1","Which of these items did you see earlier?","","","","","test","","state","true","stimuli/organized/STATE/USED/Sdrum2.jpg","stimuli/organized/STATE/USED/Sdrum1.jpg","1"
"","1003","html-button-response","191","2.0.0","405682","pnheyqmuf9u","swan","No","1","Which of these items did you see earlier?","","","","","test","","exemplar","true","stimuli/organized/EXEMPLAR/USED/Efan1.jpg","stimuli/organized/EXEMPLAR/USED/Efan2.jpg","1"
"","2274","html-button-response","192","2.0.0","407957","pnheyqmuf9u","swan","No","1","Which of these items did you see earlier?","","","","","test","","novel","true","stimuli/organized/Novel pairs (tested)/n10bturkey.jpg","stimuli/organized/Novel pairs (tested)/n10awindmill.jpg","1"
"","1878","html-button-response","193","2.0.0","409836","pnheyqmuf9u","swan","No","0","Which of these items did you see earlier?","","","","","test","","exemplar","true","stimuli/organized/EXEMPLAR/USED/Ebasket2.jpg","stimuli/organized/EXEMPLAR/USED/Ebasket1.jpg","0"
"","3278","html-button-response","194","2.0.0","413116","pnheyqmuf9u","swan","No","1","Which of these items did you see earlier?","","","","","test","","state","true","stimuli/organized/STATE/USED/Sbrushes1.jpg","stimuli/organized/STATE/USED/Sbrushes2.jpg","1"
"","1819","html-button-response","195","2.0.0","414936","pnheyqmuf9u","swan","No","1","Which of these items did you see earlier?","","","","","test","","exemplar","true","stimuli/organized/EXEMPLAR/USED/Ebicycle1.jpg","stimuli/organized/EXEMPLAR/USED/Ebicycle2.jpg","1"
"","1408","html-button-response","196","2.0.0","416344","pnheyqmuf9u","swan","No","0","Which of these items did you see earlier?","","","","","test","","state","true","stimuli/organized/STATE/USED/Sapplesgreenbasket1.jpg","stimuli/organized/STATE/USED/Sapplesgreenbasket2.jpg","0"
"","1353","html-button-response","197","2.0.0","417698","pnheyqmuf9u","swan","No","1","Which of these items did you see earlier?","","","","","test","","novel","true","stimuli/organized/Novel pairs (tested)/n05abarrel.jpg","stimuli/organized/Novel pairs (tested)/n05bcactus.jpg","1"
"","1454","html-button-response","198","2.0.0","419153","pnheyqmuf9u","swan","No","1","Which of these items did you see earlier?","","","","","test","","state","true","stimuli/organized/STATE/USED/Spie2.JPG","stimuli/organized/STATE/USED/Spie1.JPG","1"
"","1457","html-button-response","199","2.0.0","420611","pnheyqmuf9u","swan","No","0","Which of these items did you see earlier?","","","","","test","","state","true","stimuli/organized/STATE/USED/Sgrinder2.jpg","stimuli/organized/STATE/USED/Sgrinder1.jpg","0"
"","1770","html-button-response","200","2.0.0","422382","pnheyqmuf9u","swan","No","1","Which of these items did you see earlier?","","","","","test","","exemplar","true","stimuli/organized/EXEMPLAR/USED/Ecalculator2.jpg","stimuli/organized/EXEMPLAR/USED/Ecalculator1.jpg","1"
"","1803","html-button-response","201","2.0.0","424186","pnheyqmuf9u","swan","No","1","Which of these items did you see earlier?","","","","","test","","state","true","stimuli/organized/STATE/USED/Scontainer2.JPG","stimuli/organized/STATE/USED/Scontainer1.JPG","1"
"","1274","html-button-response","202","2.0.0","425461","pnheyqmuf9u","swan","No","1","Which of these items did you see earlier?","","","","","test","","exemplar","true","stimuli/organized/EXEMPLAR/USED/Ecamera1.jpg","stimuli/organized/EXEMPLAR/USED/Ecamera2.jpg","1"
"","2599","html-button-response","203","2.0.0","428061","pnheyqmuf9u","swan","No","0","Which of these items did you see earlier?","","","","","test","","state","true","stimuli/organized/STATE/USED/Sgiftbox2.jpg","stimuli/organized/STATE/USED/Sgiftbox1.jpg","0"
"","2003","html-button-response","204","2.0.0","430065","pnheyqmuf9u","swan","No","0","Which of these items did you see earlier?","","","","","test","","state","true","stimuli/organized/STATE/USED/Spotpan2.JPG","stimuli/organized/STATE/USED/Spotpan1.JPG","0"
"","1207","html-button-response","205","2.0.0","431274","pnheyqmuf9u","swan","No","1","Which of these items did you see earlier?","","","","","test","","novel","true","stimuli/organized/Novel pairs (tested)/n03bbagel.jpg","stimuli/organized/Novel pairs (tested)/n03acamel.jpg","1"
"","2528","html-button-response","206","2.0.0","433803","pnheyqmuf9u","swan","No","0","Which of these items did you see earlier?","","","","","test","","exemplar","true","stimuli/organized/EXEMPLAR/USED/Eglobe2.jpg","stimuli/organized/EXEMPLAR/USED/Eglobe1.jpg","0"
"","1144","html-button-response","207","2.0.0","434948","pnheyqmuf9u","swan","No","1","Which of these items did you see earlier?","","","","","test","","state","true","stimuli/organized/STATE/USED/Sscissors1.JPG","stimuli/organized/STATE/USED/Sscissors2.JPG","1"
"","1891","html-button-response","208","2.0.0","436840","pnheyqmuf9u","swan","No","0","Which of these items did you see earlier?","","","","","test","","state","false","stimuli/organized/STATE/USED/Sjuiceglass1.JPG","stimuli/organized/STATE/USED/Sjuiceglass2.JPG","1"
"","1211","html-button-response","209","2.0.0","438053","pnheyqmuf9u","swan","No","0","Which of these items did you see earlier?","","","","","test","","exemplar","true","stimuli/organized/EXEMPLAR/USED/Egrapes1.jpg","stimuli/organized/EXEMPLAR/USED/Egrapes2.jpg","0"
"","2861","html-button-response","210","2.0.0","440915","pnheyqmuf9u","swan","No","0","Which of these items did you see earlier?","","","","","test","","novel","true","stimuli/organized/Novel pairs (tested)/n12bwatch.jpg","stimuli/organized/Novel pairs (tested)/n12atelescope.jpg","0"
"","1257","html-button-response","211","2.0.0","442173","pnheyqmuf9u","swan","No","1","Which of these items did you see earlier?","","","","","test","","novel","true","stimuli/organized/Novel pairs (tested)/n13bdustpan.jpg","stimuli/organized/Novel pairs (tested)/n13ablueberries.jpg","1"
"","1329","html-button-response","212","2.0.0","443503","pnheyqmuf9u","swan","No","0","Which of these items did you see earlier?","","","","","test","","novel","true","stimuli/organized/Novel pairs (tested)/n15bfootball.jpg","stimuli/organized/Novel pairs (tested)/n15aspiderweb.jpg","0"
"","2141","html-button-response","213","2.0.0","445645","pnheyqmuf9u","swan","No","0","Which of these items did you see earlier?","","","","","test","","state","true","stimuli/organized/STATE/USED/Sfiretrucktoy2.jpg","stimuli/organized/STATE/USED/Sfiretrucktoy1.jpg","0"
"","1899","html-button-response","214","2.0.0","447544","pnheyqmuf9u","swan","No","1","Which of these items did you see earlier?","","","","","test","","novel","true","stimuli/organized/Novel pairs (tested)/n08aoven.jpg","stimuli/organized/Novel pairs (tested)/n08bpaperclip.jpg","1"
"","1074","html-button-response","215","2.0.0","448620","pnheyqmuf9u","swan","No","0","Which of these items did you see earlier?","","","","","test","","novel","true","stimuli/organized/Novel pairs (tested)/n19apickle.jpg","stimuli/organized/Novel pairs (tested)/n19bhairbrush.jpg","0"
"","1498","html-button-response","216","2.0.0","450119","pnheyqmuf9u","swan","No","1","Which of these items did you see earlier?","","","","","test","","exemplar","true","stimuli/organized/EXEMPLAR/USED/Egame1.jpg","stimuli/organized/EXEMPLAR/USED/Egame2.jpg","1"
"","1104","html-button-response","217","2.0.0","451224","pnheyqmuf9u","swan","No","1","Which of these items did you see earlier?","","","","","test","","state","true","stimuli/organized/STATE/USED/Sbooks1.JPG","stimuli/organized/STATE/USED/Sbooks2.JPG","1"
"","2332","html-button-response","218","2.0.0","453557","pnheyqmuf9u","swan","No","0","Which of these items did you see earlier?","","","","","test","","state","false","stimuli/organized/STATE/USED/Sbriefcase2.jpg","stimuli/organized/STATE/USED/Sbriefcase1.jpg","1"
"","1195","html-button-response","219","2.0.0","454753","pnheyqmuf9u","swan","No","1","Which of these items did you see earlier?","","","","","test","","state","true","stimuli/organized/STATE/USED/Sdonut1.jpg","stimuli/organized/STATE/USED/Sdonut2.jpg","1"
"","1498","html-button-response","220","2.0.0","456253","pnheyqmuf9u","swan","No","1","Which of these items did you see earlier?","","","","","test","","exemplar","true","stimuli/organized/EXEMPLAR/USED/Echocolatebar2.jpg","stimuli/organized/EXEMPLAR/USED/Echocolatebar1.jpg","1"
"","1415","html-button-response","221","2.0.0","457670","pnheyqmuf9u","swan","No","0","Which of these items did you see earlier?","","","","","test","","state","true","stimuli/organized/STATE/USED/Sbreadbox1.JPG","stimuli/organized/STATE/USED/Sbreadbox2.JPG","0"
"","1074","html-button-response","222","2.0.0","458744","pnheyqmuf9u","swan","No","0","Which of these items did you see earlier?","","","","","test","","novel","true","stimuli/organized/Novel pairs (tested)/n18bsnail.jpg","stimuli/organized/Novel pairs (tested)/n18apretzel.jpg","0"
"","1553","html-button-response","223","2.0.0","460298","pnheyqmuf9u","swan","No","1","Which of these items did you see earlier?","","","","","test","","state","false","stimuli/organized/STATE/USED/Schinesefoodbox2.jpg","stimuli/organized/STATE/USED/Schinesefoodbox1.jpg","0"
"","1349","html-button-response","224","2.0.0","461649","pnheyqmuf9u","swan","No","1","Which of these items did you see earlier?","","","","","test","","state","true","stimuli/organized/STATE/USED/Scookies1.JPG","stimuli/organized/STATE/USED/Scookies2.JPG","1"
"","1607","html-button-response","225","2.0.0","463257","pnheyqmuf9u","swan","No","0","Which of these items did you see earlier?","","","","","test","","state","true","stimuli/organized/STATE/USED/Scoffeemaker2.JPG","stimuli/organized/STATE/USED/Scoffeemaker1.JPG","0"
"","2270","html-button-response","226","2.0.0","465528","pnheyqmuf9u","swan","No","1","Which of these items did you see earlier?","","","","","test","","exemplar","false","stimuli/organized/EXEMPLAR/USED/Ebell2.jpg","stimuli/organized/EXEMPLAR/USED/Ebell1.jpg","0"
"","936","html-button-response","227","2.0.0","466465","pnheyqmuf9u","swan","No","1","Which of these items did you see earlier?","","","","","test","","novel","true","stimuli/organized/Novel pairs (tested)/n04ayarn.jpg","stimuli/organized/Novel pairs (tested)/n04bbandaid.jpg","1"
"","2799","html-button-response","228","2.0.0","469265","pnheyqmuf9u","swan","No","1","Which of these items did you see earlier?","","","","","test","","state","true","stimuli/organized/STATE/USED/Sbox1.jpg","stimuli/organized/STATE/USED/Sbox2.jpg","1"
"","1207","html-button-response","229","2.0.0","470473","pnheyqmuf9u","swan","No","0","Which of these items did you see earlier?","","","","","test","","exemplar","true","stimuli/organized/EXEMPLAR/USED/Efeather1.jpg","stimuli/organized/EXEMPLAR/USED/Efeather2.jpg","0"
"","1370","html-button-response","230","2.0.0","471844","pnheyqmuf9u","swan","No","1","Which of these items did you see earlier?","","","","","test","","state","true","stimuli/organized/STATE/USED/Sbelt2.jpg","stimuli/organized/STATE/USED/Sbelt1.jpg","1"
"","1966","html-button-response","231","2.0.0","473811","pnheyqmuf9u","swan","No","0","Which of these items did you see earlier?","","","","","test","","novel","true","stimuli/organized/Novel pairs (tested)/n11bsock.jpg","stimuli/organized/Novel pairs (tested)/n11abatteries.jpg","0"
"","1153","html-button-response","232","2.0.0","474965","pnheyqmuf9u","swan","No","1","Which of these items did you see earlier?","","","","","test","","novel","true","stimuli/organized/Novel pairs (tested)/n07bswimmingpool.jpg","stimuli/organized/Novel pairs (tested)/n07apotato.jpg","1"
"","1832","html-button-response","233","2.0.0","476798","pnheyqmuf9u","swan","No","1","Which of these items did you see earlier?","","","","","test","","state","false","stimuli/organized/STATE/USED/Sdresser1.jpg","stimuli/organized/STATE/USED/Sdresser2.jpg","0"
"","1403","html-button-response","234","2.0.0","478202","pnheyqmuf9u","swan","No","1","Which of these items did you see earlier?","","","","","test","","novel","true","stimuli/organized/Novel pairs (tested)/n14acigarette.jpg","stimuli/organized/Novel pairs (tested)/n14bgolfball.jpg","1"
"","1316","html-button-response","235","2.0.0","479519","pnheyqmuf9u","swan","No","1","Which of these items did you see earlier?","","","","","test","","novel","true","stimuli/organized/Novel pairs (tested)/n17avendingmachine.jpg","stimuli/organized/Novel pairs (tested)/n17bweddingdress.jpg","1"
"","1395","html-button-response","236","2.0.0","480915","pnheyqmuf9u","swan","No","1","Which of these items did you see earlier?","","","","","test","","exemplar","true","stimuli/organized/EXEMPLAR/USED/Ebread1.jpg","stimuli/organized/EXEMPLAR/USED/Ebread2.jpg","1"
"","1528","html-button-response","237","2.0.0","482445","pnheyqmuf9u","swan","No","0","Which of these items did you see earlier?","","","","","test","","state","false","stimuli/organized/STATE/USED/Sbottles1.JPG","stimuli/organized/STATE/USED/Sbottles2.JPG","1"
"","1448","html-button-response","238","2.0.0","483894","pnheyqmuf9u","swan","No","1","Which of these items did you see earlier?","","","","","test","","state","true","stimuli/organized/STATE/USED/Sbureau2.JPG","stimuli/organized/STATE/USED/Sbureau1.JPG","1"
"","1028","html-button-response","239","2.0.0","484923","pnheyqmuf9u","swan","No","0","Which of these items did you see earlier?","","","","","test","","novel","true","stimuli/organized/Novel pairs (tested)/n06blipstick.jpg","stimuli/organized/Novel pairs (tested)/n06acane.jpg","0"
"","1295","html-button-response","240","2.0.0","486219","pnheyqmuf9u","swan","No","0","Which of these items did you see earlier?","","","","","test","","state","true","stimuli/organized/STATE/USED/Scrayons1.jpg","stimuli/organized/STATE/USED/Scrayons2.jpg","0"
"","1228","html-button-response","241","2.0.0","487448","pnheyqmuf9u","swan","No","0","Which of these items did you see earlier?","","","","","test","","novel","true","stimuli/organized/Novel pairs (tested)/n09bsaddle.jpg","stimuli/organized/Novel pairs (tested)/n09apenguin.jpg","0"
"","2649","html-button-response","242","2.0.0","490098","pnheyqmuf9u","swan","No","0","Which of these items did you see earlier?","","","","","test","","exemplar","true","stimuli/organized/EXEMPLAR/USED/Edispenser2.jpg","stimuli/organized/EXEMPLAR/USED/Edispenser1.jpg","0"
"","1524","html-button-response","243","2.0.0","491623","pnheyqmuf9u","swan","No","1","Which of these items did you see earlier?","","","","","test","","exemplar","true","stimuli/organized/EXEMPLAR/USED/Ebracelet1.jpg","stimuli/organized/EXEMPLAR/USED/Ebracelet2.jpg","1"
"","7064","survey-html-form","244","2.0.0","498689","pnheyqmuf9u","swan","No","{""age"":""22"",""gender"":""female"",""memory_experiment_experience"":""yes""}","","","","","","","","","","","",""
"","14371","survey-text","245","2.0.0","513062","pnheyqmuf9u","swan","No","{""task_guess"":""To see if I would remember images that were repeated better""}","","","","","","","","","","","",""
"","2243","survey-text","246","2.0.0","515307","pnheyqmuf9u","swan","No","{""technical_issues_question"":""No""}","","","","","","","","","","","",""
