"success","rt","trial_type","trial_index","plugin_version","time_elapsed","random_id","participant","technical_issues","response","stimulus","timeout","failed_images","failed_audio","failed_video","trial_phase","is_repeat","test_type","correct","old_image","new_image","correct_position"
"true","84885","fullscreen","0","null","85868","pozqcr1djfz","deer","nope","","","","","","","","","","","","",""
"","2893","survey-text","1","2.0.0","88763","pozqcr1djfz","deer","nope","{""participant_id"":""deer""}","","","","","","","","","","","",""
"","9632","html-keyboard-response","2","2.0.0","98388","pozqcr1djfz","deer","nope"," ","
      <p>In this experiment, a series of objects will be displayed.</p>
      <p>Try to memorize as much as possible about the objects.</p>
      <p>If the image is a <strong> repeat</strong>, press the SPACEBAR.</p>
      <p>Press any key to begin.</p>
    ","","","","","","","","","","",""
"true","","preload","3","2.0.0","98853","pozqcr1djfz","deer","nope","","","false","[]","[]","[]","","","","","","",""
"","null","html-keyboard-response","4","2.0.0","99854","pozqcr1djfz","deer","nope","null","<div style=""font-size:60px;"">+</div>","","","","","","","","","","",""
"","null","image-keyboard-response","5","2.0.0","102860","pozqcr1djfz","deer","nope","null","stimuli/organized/STATE/USED/Sjuiceglass1.JPG","","","","","memory","false","state","true","","",""
"","null","html-keyboard-response","6","2.0.0","103864","pozqcr1djfz","deer","nope","null","<div style=""font-size:60px; color:black;"">+</div>","","","","","","","","","","",""
"","null","image-keyboard-response","7","2.0.0","106867","pozqcr1djfz","deer","nope","null","stimuli/organized/STATE/USED/Sgrinder1.jpg","","","","","memory","false","state","true","","",""
"","null","html-keyboard-response","8","2.0.0","107870","pozqcr1djfz","deer","nope","null","<div style=""font-size:60px; color:black;"">+</div>","","","","","","","","","","",""
"","null","image-keyboard-response","9","2.0.0","110873","pozqcr1djfz","deer","nope","null","stimuli/organized/STATE/USED/Spotpan1.JPG","","","","","memory","false","state","true","","",""
"","null","html-keyboard-response","10","2.0.0","111877","pozqcr1djfz","deer","nope","null","<div style=""font-size:60px; color:black;"">+</div>","","","","","","","","","","",""
"","null","image-keyboard-response","11","2.0.0","114880","pozqcr1djfz","deer","nope","null","stimuli/organized/EXEMPLAR/USED/Ecar2.jpg","","","","","memory","false","exemplar","true","","",""
"","null","html-keyboard-response","12","2.0.0","115883","pozqcr1djfz","deer","nope","null","<div style=""font-size:60px; color:black;"">+</div>","","","","","","","","","","",""
"","null","image-keyboard-response","13","2.0.0","118886","pozqcr1djfz","deer","nope","null","stimuli/organized/STATE/USED/Sbriefcase1.jpg","","","","","memory","false","state","true","","",""
"","null","html-keyboard-response","14","2.0.0","119888","pozqcr1djfz","deer","nope","null","<div style=""font-size:60px; color:black;"">+</div>","","","","","","","","","","",""
"","null","image-keyboard-response","15","2.0.0","122891","pozqcr1djfz","deer","nope","null","stimuli/organized/STATE/USED/Sdishes1.JPG","","","","","memory","false","state","true","","",""
"","null","html-keyboard-response","16","2.0.0","123894","pozqcr1djfz","deer","nope","null","<div style=""font-size:60px; color:black;"">+</div>","","","","","","","","","","",""
"","null","image-keyboard-response","17","2.0.0","126896","pozqcr1djfz","deer","nope","null","stimuli/organized/Novel pairs (tested)/n08aoven.jpg","","","","","memory","false","novel","true","","",""
"","null","html-keyboard-response","18","2.0.0","127899","pozqcr1djfz","deer","nope","null","<div style=""font-size:60px; color:black;"">+</div>","","","","","","","","","","",""
"","null","image-keyboard-response","19","2.0.0","130902","pozqcr1djfz","deer","nope","null","stimuli/organized/Novel pairs (tested)/n01bcoin.jpg","","","","","memory","false","novel","true","","",""
"","null","html-keyboard-response","20","2.0.0","131905","pozqcr1djfz","deer","nope","null","<div style=""font-size:60px; color:black;"">+</div>","","","","","","","","","","",""
"","null","image-keyboard-response","21","2.0.0","134908","pozqcr1djfz","deer","nope","null","stimuli/organized/Novel pairs (tested)/n12atelescope.jpg","","","","","memory","false","novel","true","","",""
"","null","html-keyboard-response","22","2.0.0","135911","pozqcr1djfz","deer","nope","null","<div style=""font-size:60px; color:black;"">+</div>","","","","","","","","","","",""
"","null","image-keyboard-response","23","2.0.0","138915","pozqcr1djfz","deer","nope","null","stimuli/organized/STATE/USED/Sphone2.JPG","","","","","memory","false","state","true","","",""
"","null","html-keyboard-response","24","2.0.0","139917","pozqcr1djfz","deer","nope","null","<div style=""font-size:60px; color:black;"">+</div>","","","","","","","","","","",""
"","null","image-keyboard-response","25","2.0.0","142921","pozqcr1djfz","deer","nope","null","stimuli/organized/STATE/USED/Sdonut1.jpg","","","","","memory","false","state","true","","",""
"","null","html-keyboard-response","26","2.0.0","143924","pozqcr1djfz","deer","nope","null","<div style=""font-size:60px; color:black;"">+</div>","","","","","","","","","","",""
"","null","image-keyboard-response","27","2.0.0","146927","pozqcr1djfz","deer","nope","null","stimuli/organized/EXEMPLAR/USED/Ebicycle2.jpg","","","","","memory","false","exemplar","true","","",""
"","null","html-keyboard-response","28","2.0.0","147929","pozqcr1djfz","deer","nope","null","<div style=""font-size:60px; color:black;"">+</div>","","","","","","","","","","",""
"","null","image-keyboard-response","29","2.0.0","150933","pozqcr1djfz","deer","nope","null","stimuli/organized/Novel pairs (tested)/n19bhairbrush.jpg","","","","","memory","false","novel","true","","",""
"","null","html-keyboard-response","30","2.0.0","151935","pozqcr1djfz","deer","nope","null","<div style=""font-size:60px; color:black;"">+</div>","","","","","","","","","","",""
"","null","image-keyboard-response","31","2.0.0","154939","pozqcr1djfz","deer","nope","null","stimuli/organized/Novel pairs (tested)/n07bswimmingpool.jpg","","","","","memory","false","novel","true","","",""
"","null","html-keyboard-response","32","2.0.0","155942","pozqcr1djfz","deer","nope","null","<div style=""font-size:60px; color:black;"">+</div>","","","","","","","","","","",""
"","null","image-keyboard-response","33","2.0.0","158945","pozqcr1djfz","deer","nope","null","stimuli/organized/STATE/USED/Sabacus1.jpg","","","","","memory","false","state","true","","",""
"","null","html-keyboard-response","34","2.0.0","159948","pozqcr1djfz","deer","nope","null","<div style=""font-size:60px; color:black;"">+</div>","","","","","","","","","","",""
"","null","image-keyboard-response","35","2.0.0","162952","pozqcr1djfz","deer","nope","null","stimuli/organized/STATE/USED/Sbelt2.jpg","","","","","memory","false","state","true","","",""
"","null","html-keyboard-response","36","2.0.0","163954","pozqcr1djfz","deer","nope","null","<div style=""font-size:60px; color:black;"">+</div>","","","","","","","","","","",""
"","null","image-keyboard-response","37","2.0.0","166958","pozqcr1djfz","deer","nope","null","stimuli/organized/Novel pairs (tested)/n20bshelf.jpg","","","","","memory","false","novel","true","","",""
"","null","html-keyboard-response","38","2.0.0","167961","pozqcr1djfz","deer","nope","null","<div style=""font-size:60px; color:black;"">+</div>","","","","","","","","","","",""
"","null","image-keyboard-response","39","2.0.0","170964","pozqcr1djfz","deer","nope","null","stimuli/organized/EXEMPLAR/USED/Ecabinet2.jpg","","","","","memory","false","exemplar","true","","",""
"","null","html-keyboard-response","40","2.0.0","171967","pozqcr1djfz","deer","nope","null","<div style=""font-size:60px; color:black;"">+</div>","","","","","","","","","","",""
"","null","image-keyboard-response","41","2.0.0","174971","pozqcr1djfz","deer","nope","null","stimuli/organized/STATE/USED/Shairbrush1.jpg","","","","","memory","false","state","true","","",""
"","null","html-keyboard-response","42","2.0.0","175974","pozqcr1djfz","deer","nope","null","<div style=""font-size:60px; color:black;"">+</div>","","","","","","","","","","",""
"","null","image-keyboard-response","43","2.0.0","178978","pozqcr1djfz","deer","nope","null","stimuli/organized/STATE/USED/Sgiftbag1.jpg","","","","","memory","false","state","true","","",""
"","null","html-keyboard-response","44","2.0.0","179980","pozqcr1djfz","deer","nope","null","<div style=""font-size:60px; color:black;"">+</div>","","","","","","","","","","",""
"","null","image-keyboard-response","45","2.0.0","182985","pozqcr1djfz","deer","nope","null","stimuli/organized/Novel pairs (tested)/n11bsock.jpg","","","","","memory","false","novel","true","","",""
"","null","html-keyboard-response","46","2.0.0","183987","pozqcr1djfz","deer","nope","null","<div style=""font-size:60px; color:black;"">+</div>","","","","","","","","","","",""
"","null","image-keyboard-response","47","2.0.0","186991","pozqcr1djfz","deer","nope","null","stimuli/organized/Novel pairs (tested)/n18apretzel.jpg","","","","","memory","false","novel","true","","",""
"","null","html-keyboard-response","48","2.0.0","187993","pozqcr1djfz","deer","nope","null","<div style=""font-size:60px; color:black;"">+</div>","","","","","","","","","","",""
"","null","image-keyboard-response","49","2.0.0","190997","pozqcr1djfz","deer","nope","null","stimuli/organized/EXEMPLAR/USED/Eglobe2.jpg","","","","","memory","false","exemplar","true","","",""
"","null","html-keyboard-response","50","2.0.0","192000","pozqcr1djfz","deer","nope","null","<div style=""font-size:60px; color:black;"">+</div>","","","","","","","","","","",""
"","null","image-keyboard-response","51","2.0.0","195004","pozqcr1djfz","deer","nope","null","stimuli/organized/Novel pairs (tested)/n10awindmill.jpg","","","","","memory","false","novel","true","","",""
"","null","html-keyboard-response","52","2.0.0","196007","pozqcr1djfz","deer","nope","null","<div style=""font-size:60px; color:black;"">+</div>","","","","","","","","","","",""
"","null","image-keyboard-response","53","2.0.0","199010","pozqcr1djfz","deer","nope","null","stimuli/organized/EXEMPLAR/USED/Echocolatebar2.jpg","","","","","memory","false","exemplar","true","","",""
"","null","html-keyboard-response","54","2.0.0","200012","pozqcr1djfz","deer","nope","null","<div style=""font-size:60px; color:black;"">+</div>","","","","","","","","","","",""
"","null","image-keyboard-response","55","2.0.0","203014","pozqcr1djfz","deer","nope","null","stimuli/organized/STATE/USED/Scoffeemaker1.JPG","","","","","memory","false","state","true","","",""
"","null","html-keyboard-response","56","2.0.0","204017","pozqcr1djfz","deer","nope","null","<div style=""font-size:60px; color:black;"">+</div>","","","","","","","","","","",""
"","null","image-keyboard-response","57","2.0.0","207021","pozqcr1djfz","deer","nope","null","stimuli/organized/EXEMPLAR/USED/Eframe2.jpg","","","","","memory","false","exemplar","true","","",""
"","null","html-keyboard-response","58","2.0.0","208024","pozqcr1djfz","deer","nope","null","<div style=""font-size:60px; color:black;"">+</div>","","","","","","","","","","",""
"","null","image-keyboard-response","59","2.0.0","211028","pozqcr1djfz","deer","nope","null","stimuli/organized/EXEMPLAR/USED/Ebasket2.jpg","","","","","memory","false","exemplar","true","","",""
"","null","html-keyboard-response","60","2.0.0","212030","pozqcr1djfz","deer","nope","null","<div style=""font-size:60px; color:black;"">+</div>","","","","","","","","","","",""
"","null","image-keyboard-response","61","2.0.0","215033","pozqcr1djfz","deer","nope","null","stimuli/organized/STATE/USED/Spie2.JPG","","","","","memory","false","state","true","","",""
"","null","html-keyboard-response","62","2.0.0","216036","pozqcr1djfz","deer","nope","null","<div style=""font-size:60px; color:black;"">+</div>","","","","","","","","","","",""
"","null","image-keyboard-response","63","2.0.0","219039","pozqcr1djfz","deer","nope","null","stimuli/organized/STATE/USED/Sapplesgreenbasket1.jpg","","","","","memory","false","state","true","","",""
"","null","html-keyboard-response","64","2.0.0","220042","pozqcr1djfz","deer","nope","null","<div style=""font-size:60px; color:black;"">+</div>","","","","","","","","","","",""
"","null","image-keyboard-response","65","2.0.0","223046","pozqcr1djfz","deer","nope","null","stimuli/organized/Novel pairs (tested)/n03acamel.jpg","","","","","memory","false","novel","true","","",""
"","null","html-keyboard-response","66","2.0.0","224048","pozqcr1djfz","deer","nope","null","<div style=""font-size:60px; color:black;"">+</div>","","","","","","","","","","",""
"","null","image-keyboard-response","67","2.0.0","227051","pozqcr1djfz","deer","nope","null","stimuli/organized/Novel pairs (tested)/n13bdustpan.jpg","","","","","memory","false","novel","true","","",""
"","null","html-keyboard-response","68","2.0.0","228054","pozqcr1djfz","deer","nope","null","<div style=""font-size:60px; color:black;"">+</div>","","","","","","","","","","",""
"","null","image-keyboard-response","69","2.0.0","231058","pozqcr1djfz","deer","nope","null","stimuli/organized/EXEMPLAR/USED/Ecamera1.jpg","","","","","memory","false","exemplar","true","","",""
"","null","html-keyboard-response","70","2.0.0","232060","pozqcr1djfz","deer","nope","null","<div style=""font-size:60px; color:black;"">+</div>","","","","","","","","","","",""
"","null","image-keyboard-response","71","2.0.0","235065","pozqcr1djfz","deer","nope","null","stimuli/organized/EXEMPLAR/USED/Egame2.jpg","","","","","memory","false","exemplar","true","","",""
"","null","html-keyboard-response","72","2.0.0","236067","pozqcr1djfz","deer","nope","null","<div style=""font-size:60px; color:black;"">+</div>","","","","","","","","","","",""
"","null","image-keyboard-response","73","2.0.0","239071","pozqcr1djfz","deer","nope","null","stimuli/organized/STATE/USED/Sfiretrucktoy2.jpg","","","","","memory","false","state","true","","",""
"","null","html-keyboard-response","74","2.0.0","240075","pozqcr1djfz","deer","nope","null","<div style=""font-size:60px; color:black;"">+</div>","","","","","","","","","","",""
"","null","image-keyboard-response","75","2.0.0","243078","pozqcr1djfz","deer","nope","null","stimuli/organized/Novel pairs (tested)/n05bcactus.jpg","","","","","memory","false","novel","true","","",""
"","null","html-keyboard-response","76","2.0.0","244082","pozqcr1djfz","deer","nope","null","<div style=""font-size:60px; color:black;"">+</div>","","","","","","","","","","",""
"","null","image-keyboard-response","77","2.0.0","247085","pozqcr1djfz","deer","nope","null","stimuli/organized/STATE/USED/Sdryer1.jpg","","","","","memory","false","state","true","","",""
"","null","html-keyboard-response","78","2.0.0","248088","pozqcr1djfz","deer","nope","null","<div style=""font-size:60px; color:black;"">+</div>","","","","","","","","","","",""
"","846","image-keyboard-response","79","2.0.0","251092","pozqcr1djfz","deer","nope"," ","stimuli/organized/EXEMPLAR/USED/Eframe2.jpg","","","","","memory","true","exemplar","true","","",""
"","null","html-keyboard-response","80","2.0.0","252095","pozqcr1djfz","deer","nope","null","<div style=""font-size:60px; color:green;"">+</div>","","","","","","","","","","",""
"","null","image-keyboard-response","81","2.0.0","255099","pozqcr1djfz","deer","nope","null","stimuli/organized/Novel pairs (tested)/n02aaxe.jpg","","","","","memory","false","novel","true","","",""
"","null","html-keyboard-response","82","2.0.0","256102","pozqcr1djfz","deer","nope","null","<div style=""font-size:60px; color:black;"">+</div>","","","","","","","","","","",""
"","null","image-keyboard-response","83","2.0.0","259106","pozqcr1djfz","deer","nope","null","stimuli/organized/EXEMPLAR/USED/Ebell1.jpg","","","","","memory","false","exemplar","true","","",""
"","null","html-keyboard-response","84","2.0.0","260109","pozqcr1djfz","deer","nope","null","<div style=""font-size:60px; color:black;"">+</div>","","","","","","","","","","",""
"","null","image-keyboard-response","85","2.0.0","263112","pozqcr1djfz","deer","nope","null","stimuli/organized/EXEMPLAR/USED/Egoggles2.jpg","","","","","memory","false","exemplar","true","","",""
"","null","html-keyboard-response","86","2.0.0","264115","pozqcr1djfz","deer","nope","null","<div style=""font-size:60px; color:black;"">+</div>","","","","","","","","","","",""
"","null","image-keyboard-response","87","2.0.0","267119","pozqcr1djfz","deer","nope","null","stimuli/organized/EXEMPLAR/USED/Efan2.jpg","","","","","memory","false","exemplar","true","","",""
"","null","html-keyboard-response","88","2.0.0","268122","pozqcr1djfz","deer","nope","null","<div style=""font-size:60px; color:black;"">+</div>","","","","","","","","","","",""
"","null","image-keyboard-response","89","2.0.0","271127","pozqcr1djfz","deer","nope","null","stimuli/organized/EXEMPLAR/USED/Egrapes1.jpg","","","","","memory","false","exemplar","true","","",""
"","null","html-keyboard-response","90","2.0.0","272130","pozqcr1djfz","deer","nope","null","<div style=""font-size:60px; color:black;"">+</div>","","","","","","","","","","",""
"","null","image-keyboard-response","91","2.0.0","275133","pozqcr1djfz","deer","nope","null","stimuli/organized/EXEMPLAR/USED/Echisel1.jpg","","","","","memory","false","exemplar","true","","",""
"","null","html-keyboard-response","92","2.0.0","276136","pozqcr1djfz","deer","nope","null","<div style=""font-size:60px; color:black;"">+</div>","","","","","","","","","","",""
"","null","image-keyboard-response","93","2.0.0","279139","pozqcr1djfz","deer","nope","null","stimuli/organized/STATE/USED/Sgiftbox1.jpg","","","","","memory","false","state","true","","",""
"","null","html-keyboard-response","94","2.0.0","280142","pozqcr1djfz","deer","nope","null","<div style=""font-size:60px; color:black;"">+</div>","","","","","","","","","","",""
"","null","image-keyboard-response","95","2.0.0","283146","pozqcr1djfz","deer","nope","null","stimuli/organized/EXEMPLAR/USED/Ebread1.jpg","","","","","memory","false","exemplar","true","","",""
"","null","html-keyboard-response","96","2.0.0","284148","pozqcr1djfz","deer","nope","null","<div style=""font-size:60px; color:black;"">+</div>","","","","","","","","","","",""
"","null","image-keyboard-response","97","2.0.0","287152","pozqcr1djfz","deer","nope","null","stimuli/organized/Novel pairs (tested)/n04ayarn.jpg","","","","","memory","false","novel","true","","",""
"","null","html-keyboard-response","98","2.0.0","288155","pozqcr1djfz","deer","nope","null","<div style=""font-size:60px; color:black;"">+</div>","","","","","","","","","","",""
"","null","image-keyboard-response","99","2.0.0","291159","pozqcr1djfz","deer","nope","null","stimuli/organized/STATE/USED/Sscanner2.JPG","","","","","memory","false","state","true","","",""
"","null","html-keyboard-response","100","2.0.0","292161","pozqcr1djfz","deer","nope","null","<div style=""font-size:60px; color:black;"">+</div>","","","","","","","","","","",""
"","null","image-keyboard-response","101","2.0.0","295165","pozqcr1djfz","deer","nope","null","stimuli/organized/EXEMPLAR/USED/Edispenser1.jpg","","","","","memory","false","exemplar","true","","",""
"","null","html-keyboard-response","102","2.0.0","296167","pozqcr1djfz","deer","nope","null","<div style=""font-size:60px; color:black;"">+</div>","","","","","","","","","","",""
"","null","image-keyboard-response","103","2.0.0","299170","pozqcr1djfz","deer","nope","null","stimuli/organized/STATE/USED/Schinesefoodbox1.jpg","","","","","memory","false","state","true","","",""
"","null","html-keyboard-response","104","2.0.0","300173","pozqcr1djfz","deer","nope","null","<div style=""font-size:60px; color:black;"">+</div>","","","","","","","","","","",""
"","null","image-keyboard-response","105","2.0.0","303176","pozqcr1djfz","deer","nope","null","stimuli/organized/STATE/USED/Sbottles2.JPG","","","","","memory","false","state","true","","",""
"","null","html-keyboard-response","106","2.0.0","304179","pozqcr1djfz","deer","nope","null","<div style=""font-size:60px; color:black;"">+</div>","","","","","","","","","","",""
"","null","image-keyboard-response","107","2.0.0","307183","pozqcr1djfz","deer","nope","null","stimuli/organized/Novel pairs (tested)/n16bhammer.jpg","","","","","memory","false","novel","true","","",""
"","null","html-keyboard-response","108","2.0.0","308186","pozqcr1djfz","deer","nope","null","<div style=""font-size:60px; color:black;"">+</div>","","","","","","","","","","",""
"","null","image-keyboard-response","109","2.0.0","311190","pozqcr1djfz","deer","nope","null","stimuli/organized/STATE/USED/Sbrushes1.jpg","","","","","memory","false","state","true","","",""
"","null","html-keyboard-response","110","2.0.0","312192","pozqcr1djfz","deer","nope","null","<div style=""font-size:60px; color:black;"">+</div>","","","","","","","","","","",""
"","null","image-keyboard-response","111","2.0.0","315196","pozqcr1djfz","deer","nope","null","stimuli/organized/STATE/USED/Scontainer2.JPG","","","","","memory","false","state","true","","",""
"","null","html-keyboard-response","112","2.0.0","316199","pozqcr1djfz","deer","nope","null","<div style=""font-size:60px; color:black;"">+</div>","","","","","","","","","","",""
"","null","image-keyboard-response","113","2.0.0","319203","pozqcr1djfz","deer","nope","null","stimuli/organized/STATE/USED/Seggs2.jpg","","","","","memory","false","state","true","","",""
"","null","html-keyboard-response","114","2.0.0","320205","pozqcr1djfz","deer","nope","null","<div style=""font-size:60px; color:black;"">+</div>","","","","","","","","","","",""
"","null","image-keyboard-response","115","2.0.0","323208","pozqcr1djfz","deer","nope","null","stimuli/organized/STATE/USED/Sflask1.jpg","","","","","memory","false","state","true","","",""
"","null","html-keyboard-response","116","2.0.0","324210","pozqcr1djfz","deer","nope","null","<div style=""font-size:60px; color:black;"">+</div>","","","","","","","","","","",""
"","null","image-keyboard-response","117","2.0.0","327214","pozqcr1djfz","deer","nope","null","stimuli/organized/EXEMPLAR/USED/Econe2.jpg","","","","","memory","false","exemplar","true","","",""
"","null","html-keyboard-response","118","2.0.0","328217","pozqcr1djfz","deer","nope","null","<div style=""font-size:60px; color:black;"">+</div>","","","","","","","","","","",""
"","null","image-keyboard-response","119","2.0.0","331221","pozqcr1djfz","deer","nope","null","stimuli/organized/STATE/USED/Sdrum1.jpg","","","","","memory","false","state","true","","",""
"","null","html-keyboard-response","120","2.0.0","332223","pozqcr1djfz","deer","nope","null","<div style=""font-size:60px; color:black;"">+</div>","","","","","","","","","","",""
"","null","image-keyboard-response","121","2.0.0","335227","pozqcr1djfz","deer","nope","null","stimuli/organized/Novel pairs (tested)/n17bweddingdress.jpg","","","","","memory","false","novel","true","","",""
"","null","html-keyboard-response","122","2.0.0","336230","pozqcr1djfz","deer","nope","null","<div style=""font-size:60px; color:black;"">+</div>","","","","","","","","","","",""
"","null","image-keyboard-response","123","2.0.0","339234","pozqcr1djfz","deer","nope","null","stimuli/organized/STATE/USED/Sdie2.jpg","","","","","memory","false","state","true","","",""
"","null","html-keyboard-response","124","2.0.0","340237","pozqcr1djfz","deer","nope","null","<div style=""font-size:60px; color:black;"">+</div>","","","","","","","","","","",""
"","null","image-keyboard-response","125","2.0.0","343241","pozqcr1djfz","deer","nope","null","stimuli/organized/Novel pairs (tested)/n09apenguin.jpg","","","","","memory","false","novel","true","","",""
"","null","html-keyboard-response","126","2.0.0","344243","pozqcr1djfz","deer","nope","null","<div style=""font-size:60px; color:black;"">+</div>","","","","","","","","","","",""
"","null","image-keyboard-response","127","2.0.0","347247","pozqcr1djfz","deer","nope","null","stimuli/organized/STATE/USED/Sbureau1.JPG","","","","","memory","false","state","true","","",""
"","null","html-keyboard-response","128","2.0.0","348250","pozqcr1djfz","deer","nope","null","<div style=""font-size:60px; color:black;"">+</div>","","","","","","","","","","",""
"","null","image-keyboard-response","129","2.0.0","351254","pozqcr1djfz","deer","nope","null","stimuli/organized/Novel pairs (tested)/n15aspiderweb.jpg","","","","","memory","false","novel","true","","",""
"","null","html-keyboard-response","130","2.0.0","352257","pozqcr1djfz","deer","nope","null","<div style=""font-size:60px; color:black;"">+</div>","","","","","","","","","","",""
"","null","image-keyboard-response","131","2.0.0","355261","pozqcr1djfz","deer","nope","null","stimuli/organized/STATE/USED/Scookies2.JPG","","","","","memory","false","state","true","","",""
"","null","html-keyboard-response","132","2.0.0","356263","pozqcr1djfz","deer","nope","null","<div style=""font-size:60px; color:black;"">+</div>","","","","","","","","","","",""
"","null","image-keyboard-response","133","2.0.0","359267","pozqcr1djfz","deer","nope","null","stimuli/organized/EXEMPLAR/USED/Efeather1.jpg","","","","","memory","false","exemplar","true","","",""
"","null","html-keyboard-response","134","2.0.0","360270","pozqcr1djfz","deer","nope","null","<div style=""font-size:60px; color:black;"">+</div>","","","","","","","","","","",""
"","null","image-keyboard-response","135","2.0.0","363273","pozqcr1djfz","deer","nope","null","stimuli/organized/STATE/USED/Scrayons1.jpg","","","","","memory","false","state","true","","",""
"","null","html-keyboard-response","136","2.0.0","364275","pozqcr1djfz","deer","nope","null","<div style=""font-size:60px; color:black;"">+</div>","","","","","","","","","","",""
"","null","image-keyboard-response","137","2.0.0","367278","pozqcr1djfz","deer","nope","null","stimuli/organized/STATE/USED/Sdresser1.jpg","","","","","memory","false","state","true","","",""
"","null","html-keyboard-response","138","2.0.0","368281","pozqcr1djfz","deer","nope","null","<div style=""font-size:60px; color:black;"">+</div>","","","","","","","","","","",""
"","null","image-keyboard-response","139","2.0.0","371284","pozqcr1djfz","deer","nope","null","stimuli/organized/STATE/USED/Sbox2.jpg","","","","","memory","false","state","true","","",""
"","null","html-keyboard-response","140","2.0.0","372287","pozqcr1djfz","deer","nope","null","<div style=""font-size:60px; color:black;"">+</div>","","","","","","","","","","",""
"","null","image-keyboard-response","141","2.0.0","375291","pozqcr1djfz","deer","nope","null","stimuli/organized/EXEMPLAR/USED/Ecalculator2.jpg","","","","","memory","false","exemplar","true","","",""
"","null","html-keyboard-response","142","2.0.0","376293","pozqcr1djfz","deer","nope","null","<div style=""font-size:60px; color:black;"">+</div>","","","","","","","","","","",""
"","899","image-keyboard-response","143","2.0.0","379296","pozqcr1djfz","deer","nope"," ","stimuli/organized/STATE/USED/Sabacus1.jpg","","","","","memory","true","state","true","","",""
"","null","html-keyboard-response","144","2.0.0","380299","pozqcr1djfz","deer","nope","null","<div style=""font-size:60px; color:green;"">+</div>","","","","","","","","","","",""
"","1093","image-keyboard-response","145","2.0.0","383302","pozqcr1djfz","deer","nope"," ","stimuli/organized/STATE/USED/Sbrushes1.jpg","","","","","memory","true","state","true","","",""
"","null","html-keyboard-response","146","2.0.0","384305","pozqcr1djfz","deer","nope","null","<div style=""font-size:60px; color:green;"">+</div>","","","","","","","","","","",""
"","null","image-keyboard-response","147","2.0.0","387309","pozqcr1djfz","deer","nope","null","stimuli/organized/STATE/USED/Sbreadbox2.JPG","","","","","memory","false","state","true","","",""
"","null","html-keyboard-response","148","2.0.0","388312","pozqcr1djfz","deer","nope","null","<div style=""font-size:60px; color:black;"">+</div>","","","","","","","","","","",""
"","null","image-keyboard-response","149","2.0.0","391316","pozqcr1djfz","deer","nope","null","stimuli/organized/STATE/USED/Sscissors2.JPG","","","","","memory","false","state","true","","",""
"","null","html-keyboard-response","150","2.0.0","392319","pozqcr1djfz","deer","nope","null","<div style=""font-size:60px; color:black;"">+</div>","","","","","","","","","","",""
"","null","image-keyboard-response","151","2.0.0","395322","pozqcr1djfz","deer","nope","null","stimuli/organized/EXEMPLAR/USED/Ebracelet2.jpg","","","","","memory","false","exemplar","true","","",""
"","null","html-keyboard-response","152","2.0.0","396324","pozqcr1djfz","deer","nope","null","<div style=""font-size:60px; color:black;"">+</div>","","","","","","","","","","",""
"","829","image-keyboard-response","153","2.0.0","399328","pozqcr1djfz","deer","nope"," ","stimuli/organized/STATE/USED/Seggs2.jpg","","","","","memory","true","state","true","","",""
"","null","html-keyboard-response","154","2.0.0","400331","pozqcr1djfz","deer","nope","null","<div style=""font-size:60px; color:green;"">+</div>","","","","","","","","","","",""
"","null","image-keyboard-response","155","2.0.0","403334","pozqcr1djfz","deer","nope","null","stimuli/organized/Novel pairs (tested)/n14bgolfball.jpg","","","","","memory","false","novel","true","","",""
"","null","html-keyboard-response","156","2.0.0","404336","pozqcr1djfz","deer","nope","null","<div style=""font-size:60px; color:black;"">+</div>","","","","","","","","","","",""
"","null","image-keyboard-response","157","2.0.0","407340","pozqcr1djfz","deer","nope","null","stimuli/organized/Novel pairs (tested)/n06acane.jpg","","","","","memory","false","novel","true","","",""
"","null","html-keyboard-response","158","2.0.0","408341","pozqcr1djfz","deer","nope","null","<div style=""font-size:60px; color:black;"">+</div>","","","","","","","","","","",""
"","null","image-keyboard-response","159","2.0.0","411344","pozqcr1djfz","deer","nope","null","stimuli/organized/STATE/USED/Sbooks2.JPG","","","","","memory","false","state","true","","",""
"","null","html-keyboard-response","160","2.0.0","412347","pozqcr1djfz","deer","nope","null","<div style=""font-size:60px; color:black;"">+</div>","","","","","","","","","","",""
"","null","image-keyboard-response","161","2.0.0","415351","pozqcr1djfz","deer","nope","null","stimuli/organized/STATE/USED/Sbabytoy2.JPG","","","","","memory","false","state","true","","",""
"","null","html-keyboard-response","162","2.0.0","416354","pozqcr1djfz","deer","nope","null","<div style=""font-size:60px; color:black;"">+</div>","","","","","","","","","","",""
"","null","image-keyboard-response","163","2.0.0","419358","pozqcr1djfz","deer","nope","null","stimuli/organized/STATE/USED/Slaptop1.JPG","","","","","memory","false","state","true","","",""
"","null","html-keyboard-response","164","2.0.0","420361","pozqcr1djfz","deer","nope","null","<div style=""font-size:60px; color:black;"">+</div>","","","","","","","","","","",""
"","706","image-keyboard-response","165","2.0.0","423365","pozqcr1djfz","deer","nope"," ","stimuli/organized/Novel pairs (tested)/n06acane.jpg","","","","","memory","true","novel","true","","",""
"","40954","html-button-response","166","2.0.0","464322","pozqcr1djfz","deer","nope","0","<p>You have completed the study phase.</p><p>Take a short break. Press the button below when you are ready to continue.</p>","","","","","","","","","","",""
"","4887","html-keyboard-response","167","2.0.0","469210","pozqcr1djfz","deer","nope","j","<p>You will now be shown pairs of images.</p><p>Select the image you remember seeing during the study phase.</p><p>Focus on accuracy, not speed.</p><p>Press any key to begin.</p>","","","","","","","","","","",""
"","1827","html-button-response","168","2.0.0","471039","pozqcr1djfz","deer","nope","0","Which of these items did you see earlier?","","","","","test","","state","true","stimuli/organized/STATE/USED/Spotpan1.JPG","stimuli/organized/STATE/USED/Spotpan2.JPG","0"
"","2399","html-button-response","169","2.0.0","473440","pozqcr1djfz","deer","nope","0","Which of these items did you see earlier?","","","","","test","","state","true","stimuli/organized/STATE/USED/Sabacus1.jpg","stimuli/organized/STATE/USED/Sabacus2.jpg","0"
"","1380","html-button-response","170","2.0.0","474821","pozqcr1djfz","deer","nope","1","Which of these items did you see earlier?","","","","","test","","exemplar","false","stimuli/organized/EXEMPLAR/USED/Echisel1.jpg","stimuli/organized/EXEMPLAR/USED/Echisel2.jpg","0"
"","1283","html-button-response","171","2.0.0","476106","pozqcr1djfz","deer","nope","1","Which of these items did you see earlier?","","","","","test","","novel","true","stimuli/organized/Novel pairs (tested)/n08aoven.jpg","stimuli/organized/Novel pairs (tested)/n08bpaperclip.jpg","1"
"","1697","html-button-response","172","2.0.0","477805","pozqcr1djfz","deer","nope","0","Which of these items did you see earlier?","","","","","test","","exemplar","true","stimuli/organized/EXEMPLAR/USED/Ebell1.jpg","stimuli/organized/EXEMPLAR/USED/Ebell2.jpg","0"
"","1381","html-button-response","173","2.0.0","479187","pozqcr1djfz","deer","nope","1","Which of these items did you see earlier?","","","","","test","","exemplar","true","stimuli/organized/EXEMPLAR/USED/Ebread1.jpg","stimuli/organized/EXEMPLAR/USED/Ebread2.jpg","1"
"","1399","html-button-response","174","2.0.0","480588","pozqcr1djfz","deer","nope","0","Which of these items did you see earlier?","","","","","test","","state","true","stimuli/organized/STATE/USED/Sscanner2.JPG","stimuli/organized/STATE/USED/Sscanner1.JPG","0"
"","3015","html-button-response","175","2.0.0","483605","pozqcr1djfz","deer","nope","1","Which of these items did you see earlier?","","","","","test","","state","false","stimuli/organized/STATE/USED/Sdishes1.JPG","stimuli/organized/STATE/USED/Sdishes2.JPG","0"
"","1316","html-button-response","176","2.0.0","484923","pozqcr1djfz","deer","nope","1","Which of these items did you see earlier?","","","","","test","","exemplar","true","stimuli/organized/EXEMPLAR/USED/Ecabinet2.jpg","stimuli/organized/EXEMPLAR/USED/Ecabinet1.jpg","1"
"","1130","html-button-response","177","2.0.0","486055","pozqcr1djfz","deer","nope","0","Which of these items did you see earlier?","","","","","test","","state","true","stimuli/organized/STATE/USED/Sbelt2.jpg","stimuli/organized/STATE/USED/Sbelt1.jpg","0"
"","1349","html-button-response","178","2.0.0","487405","pozqcr1djfz","deer","nope","1","Which of these items did you see earlier?","","","","","test","","novel","true","stimuli/organized/Novel pairs (tested)/n06acane.jpg","stimuli/organized/Novel pairs (tested)/n06blipstick.jpg","1"
"","1464","html-button-response","179","2.0.0","488870","pozqcr1djfz","deer","nope","0","Which of these items did you see earlier?","","","","","test","","state","false","stimuli/organized/STATE/USED/Scoffeemaker1.JPG","stimuli/organized/STATE/USED/Scoffeemaker2.JPG","1"
"","1734","html-button-response","180","2.0.0","490606","pozqcr1djfz","deer","nope","1","Which of these items did you see earlier?","","","","","test","","novel","true","stimuli/organized/Novel pairs (tested)/n13bdustpan.jpg","stimuli/organized/Novel pairs (tested)/n13ablueberries.jpg","1"
"","1080","html-button-response","181","2.0.0","491688","pozqcr1djfz","deer","nope","1","Which of these items did you see earlier?","","","","","test","","novel","true","stimuli/organized/Novel pairs (tested)/n05bcactus.jpg","stimuli/organized/Novel pairs (tested)/n05abarrel.jpg","1"
"","1233","html-button-response","182","2.0.0","492923","pozqcr1djfz","deer","nope","0","Which of these items did you see earlier?","","","","","test","","novel","true","stimuli/organized/Novel pairs (tested)/n01bcoin.jpg","stimuli/organized/Novel pairs (tested)/n01aladybug.jpg","0"
"","1280","html-button-response","183","2.0.0","494204","pozqcr1djfz","deer","nope","0","Which of these items did you see earlier?","","","","","test","","novel","true","stimuli/organized/Novel pairs (tested)/n12atelescope.jpg","stimuli/organized/Novel pairs (tested)/n12bwatch.jpg","0"
"","1299","html-button-response","184","2.0.0","495504","pozqcr1djfz","deer","nope","1","Which of these items did you see earlier?","","","","","test","","novel","true","stimuli/organized/Novel pairs (tested)/n07bswimmingpool.jpg","stimuli/organized/Novel pairs (tested)/n07apotato.jpg","1"
"","1116","html-button-response","185","2.0.0","496622","pozqcr1djfz","deer","nope","0","Which of these items did you see earlier?","","","","","test","","state","true","stimuli/organized/STATE/USED/Sbox2.jpg","stimuli/organized/STATE/USED/Sbox1.jpg","0"
"","1149","html-button-response","186","2.0.0","497772","pozqcr1djfz","deer","nope","1","Which of these items did you see earlier?","","","","","test","","exemplar","true","stimuli/organized/EXEMPLAR/USED/Efan2.jpg","stimuli/organized/EXEMPLAR/USED/Efan1.jpg","1"
"","1132","html-button-response","187","2.0.0","498906","pozqcr1djfz","deer","nope","0","Which of these items did you see earlier?","","","","","test","","exemplar","true","stimuli/organized/EXEMPLAR/USED/Eframe2.jpg","stimuli/organized/EXEMPLAR/USED/Eframe1.jpg","0"
"","2797","html-button-response","188","2.0.0","501705","pozqcr1djfz","deer","nope","0","Which of these items did you see earlier?","","","","","test","","state","false","stimuli/organized/STATE/USED/Sbureau1.JPG","stimuli/organized/STATE/USED/Sbureau2.JPG","1"
"","2099","html-button-response","189","2.0.0","503806","pozqcr1djfz","deer","nope","1","Which of these items did you see earlier?","","","","","test","","exemplar","true","stimuli/organized/EXEMPLAR/USED/Egame2.jpg","stimuli/organized/EXEMPLAR/USED/Egame1.jpg","1"
"","1448","html-button-response","190","2.0.0","505256","pozqcr1djfz","deer","nope","1","Which of these items did you see earlier?","","","","","test","","state","true","stimuli/organized/STATE/USED/Sdonut1.jpg","stimuli/organized/STATE/USED/Sdonut2.jpg","1"
"","1114","html-button-response","191","2.0.0","506371","pozqcr1djfz","deer","nope","1","Which of these items did you see earlier?","","","","","test","","exemplar","true","stimuli/organized/EXEMPLAR/USED/Echocolatebar2.jpg","stimuli/organized/EXEMPLAR/USED/Echocolatebar1.jpg","1"
"","1166","html-button-response","192","2.0.0","507539","pozqcr1djfz","deer","nope","0","Which of these items did you see earlier?","","","","","test","","state","true","stimuli/organized/STATE/USED/Scookies2.JPG","stimuli/organized/STATE/USED/Scookies1.JPG","0"
"","1148","html-button-response","193","2.0.0","508688","pozqcr1djfz","deer","nope","0","Which of these items did you see earlier?","","","","","test","","exemplar","true","stimuli/organized/EXEMPLAR/USED/Econe2.jpg","stimuli/organized/EXEMPLAR/USED/Econe1.jpg","0"
"","2198","html-button-response","194","2.0.0","510888","pozqcr1djfz","deer","nope","0","Which of these items did you see earlier?","","","","","test","","state","true","stimuli/organized/STATE/USED/Sgrinder1.jpg","stimuli/organized/STATE/USED/Sgrinder2.jpg","0"
"","1332","html-button-response","195","2.0.0","512222","pozqcr1djfz","deer","nope","1","Which of these items did you see earlier?","","","","","test","","novel","true","stimuli/organized/Novel pairs (tested)/n09apenguin.jpg","stimuli/organized/Novel pairs (tested)/n09bsaddle.jpg","1"
"","1065","html-button-response","196","2.0.0","513289","pozqcr1djfz","deer","nope","1","Which of these items did you see earlier?","","","","","test","","novel","true","stimuli/organized/Novel pairs (tested)/n11bsock.jpg","stimuli/organized/Novel pairs (tested)/n11abatteries.jpg","1"
"","1431","html-button-response","197","2.0.0","514722","pozqcr1djfz","deer","nope","1","Which of these items did you see earlier?","","","","","test","","state","true","stimuli/organized/STATE/USED/Slaptop1.JPG","stimuli/organized/STATE/USED/Slaptop2.JPG","1"
"","1049","html-button-response","198","2.0.0","515772","pozqcr1djfz","deer","nope","1","Which of these items did you see earlier?","","","","","test","","novel","true","stimuli/organized/Novel pairs (tested)/n04ayarn.jpg","stimuli/organized/Novel pairs (tested)/n04bbandaid.jpg","1"
"","1815","html-button-response","199","2.0.0","517589","pozqcr1djfz","deer","nope","0","Which of these items did you see earlier?","","","","","test","","exemplar","true","stimuli/organized/EXEMPLAR/USED/Ecamera1.jpg","stimuli/organized/EXEMPLAR/USED/Ecamera2.jpg","0"
"","1181","html-button-response","200","2.0.0","518771","pozqcr1djfz","deer","nope","0","Which of these items did you see earlier?","","","","","test","","exemplar","true","stimuli/organized/EXEMPLAR/USED/Ecalculator2.jpg","stimuli/organized/EXEMPLAR/USED/Ecalculator1.jpg","0"
"","1448","html-button-response","201","2.0.0","520221","pozqcr1djfz","deer","nope","1","Which of these items did you see earlier?","","","","","test","","state","true","stimuli/organized/STATE/USED/Sfiretrucktoy2.jpg","stimuli/organized/STATE/USED/Sfiretrucktoy1.jpg","1"
"","1481","html-button-response","202","2.0.0","521704","pozqcr1djfz","deer","nope","1","Which of these items did you see earlier?","","","","","test","","state","false","stimuli/organized/STATE/USED/Sjuiceglass1.JPG","stimuli/organized/STATE/USED/Sjuiceglass2.JPG","0"
"","1332","html-button-response","203","2.0.0","523038","pozqcr1djfz","deer","nope","1","Which of these items did you see earlier?","","","","","test","","state","true","stimuli/organized/STATE/USED/Sphone2.JPG","stimuli/organized/STATE/USED/Sphone1.JPG","1"
"","1582","html-button-response","204","2.0.0","524621","pozqcr1djfz","deer","nope","0","Which of these items did you see earlier?","","","","","test","","state","true","stimuli/organized/STATE/USED/Scontainer2.JPG","stimuli/organized/STATE/USED/Scontainer1.JPG","0"
"","2349","html-button-response","205","2.0.0","526972","pozqcr1djfz","deer","nope","0","Which of these items did you see earlier?","","","","","test","","state","true","stimuli/organized/STATE/USED/Sgiftbag1.jpg","stimuli/organized/STATE/USED/Sgiftbag2.jpg","0"
"","1966","html-button-response","206","2.0.0","528939","pozqcr1djfz","deer","nope","0","Which of these items did you see earlier?","","","","","test","","exemplar","true","stimuli/organized/EXEMPLAR/USED/Ebicycle2.jpg","stimuli/organized/EXEMPLAR/USED/Ebicycle1.jpg","0"
"","2081","html-button-response","207","2.0.0","531023","pozqcr1djfz","deer","nope","0","Which of these items did you see earlier?","","","","","test","","state","true","stimuli/organized/STATE/USED/Sflask1.jpg","stimuli/organized/STATE/USED/Sflask2.jpg","0"
"","2396","html-button-response","208","2.0.0","533421","pozqcr1djfz","deer","nope","0","Which of these items did you see earlier?","","","","","test","","novel","true","stimuli/organized/Novel pairs (tested)/n16bhammer.jpg","stimuli/organized/Novel pairs (tested)/n16abananas.jpg","0"
"","1215","html-button-response","209","2.0.0","534637","pozqcr1djfz","deer","nope","1","Which of these items did you see earlier?","","","","","test","","novel","true","stimuli/organized/Novel pairs (tested)/n02aaxe.jpg","stimuli/organized/Novel pairs (tested)/n02bsafetypin.jpg","1"
"","1984","html-button-response","210","2.0.0","536622","pozqcr1djfz","deer","nope","1","Which of these items did you see earlier?","","","","","test","","novel","true","stimuli/organized/Novel pairs (tested)/n10awindmill.jpg","stimuli/organized/Novel pairs (tested)/n10bturkey.jpg","1"
"","3664","html-button-response","211","2.0.0","540288","pozqcr1djfz","deer","nope","0","Which of these items did you see earlier?","","","","","test","","state","true","stimuli/organized/STATE/USED/Sbottles2.JPG","stimuli/organized/STATE/USED/Sbottles1.JPG","0"
"","1232","html-button-response","212","2.0.0","541522","pozqcr1djfz","deer","nope","0","Which of these items did you see earlier?","","","","","test","","state","false","stimuli/organized/STATE/USED/Sbreadbox2.JPG","stimuli/organized/STATE/USED/Sbreadbox1.JPG","1"
"","2214","html-button-response","213","2.0.0","543738","pozqcr1djfz","deer","nope","0","Which of these items did you see earlier?","","","","","test","","state","true","stimuli/organized/STATE/USED/Sapplesgreenbasket1.jpg","stimuli/organized/STATE/USED/Sapplesgreenbasket2.jpg","0"
"","1198","html-button-response","214","2.0.0","544938","pozqcr1djfz","deer","nope","1","Which of these items did you see earlier?","","","","","test","","exemplar","true","stimuli/organized/EXEMPLAR/USED/Eglobe2.jpg","stimuli/organized/EXEMPLAR/USED/Eglobe1.jpg","1"
"","1215","html-button-response","215","2.0.0","546155","pozqcr1djfz","deer","nope","0","Which of these items did you see earlier?","","","","","test","","state","true","stimuli/organized/STATE/USED/Sbriefcase1.jpg","stimuli/organized/STATE/USED/Sbriefcase2.jpg","0"
"","1199","html-button-response","216","2.0.0","547355","pozqcr1djfz","deer","nope","1","Which of these items did you see earlier?","","","","","test","","exemplar","true","stimuli/organized/EXEMPLAR/USED/Ebracelet2.jpg","stimuli/organized/EXEMPLAR/USED/Ebracelet1.jpg","1"
"","1149","html-button-response","217","2.0.0","548505","pozqcr1djfz","deer","nope","0","Which of these items did you see earlier?","","","","","test","","novel","true","stimuli/organized/Novel pairs (tested)/n17bweddingdress.jpg","stimuli/organized/Novel pairs (tested)/n17avendingmachine.jpg","0"
"","1214","html-button-response","218","2.0.0","549721","pozqcr1djfz","deer","nope","1","Which of these items did you see earlier?","","","","","test","","state","true","stimuli/organized/STATE/USED/Sscissors2.JPG","stimuli/organized/STATE/USED/Sscissors1.JPG","1"
"","2382","html-button-response","219","2.0.0","552105","pozqcr1djfz","deer","nope","0","Which of these items did you see earlier?","","","","","test","","state","false","stimuli/organized/STATE/USED/Sbooks2.JPG","stimuli/organized/STATE/USED/Sbooks1.JPG","1"
"","1399","html-button-response","220","2.0.0","553506","pozqcr1djfz","deer","nope","1","Which of these items did you see earlier?","","","","","test","","novel","true","stimuli/organized/Novel pairs (tested)/n03acamel.jpg","stimuli/organized/Novel pairs (tested)/n03bbagel.jpg","1"
"","1081","html-button-response","221","2.0.0","554588","pozqcr1djfz","deer","nope","1","Which of these items did you see earlier?","","","","","test","","novel","true","stimuli/organized/Novel pairs (tested)/n15aspiderweb.jpg","stimuli/organized/Novel pairs (tested)/n15bfootball.jpg","1"
"","2215","html-button-response","222","2.0.0","556805","pozqcr1djfz","deer","nope","0","Which of these items did you see earlier?","","","","","test","","novel","true","stimuli/organized/Novel pairs (tested)/n19bhairbrush.jpg","stimuli/organized/Novel pairs (tested)/n19apickle.jpg","0"
"","1231","html-button-response","223","2.0.0","558038","pozqcr1djfz","deer","nope","1","Which of these items did you see earlier?","","","","","test","","state","true","stimuli/organized/STATE/USED/Sdryer1.jpg","stimuli/organized/STATE/USED/Sdryer2.jpg","1"
"","1132","html-button-response","224","2.0.0","559172","pozqcr1djfz","deer","nope","1","Which of these items did you see earlier?","","","","","test","","state","true","stimuli/organized/STATE/USED/Shairbrush1.jpg","stimuli/organized/STATE/USED/Shairbrush2.jpg","1"
"","2832","html-button-response","225","2.0.0","562006","pozqcr1djfz","deer","nope","0","Which of these items did you see earlier?","","","","","test","","state","true","stimuli/organized/STATE/USED/Sdie2.jpg","stimuli/organized/STATE/USED/Sdie1.jpg","0"
"","1464","html-button-response","226","2.0.0","563472","pozqcr1djfz","deer","nope","1","Which of these items did you see earlier?","","","","","test","","exemplar","true","stimuli/organized/EXEMPLAR/USED/Edispenser1.jpg","stimuli/organized/EXEMPLAR/USED/Edispenser2.jpg","1"
"","1266","html-button-response","227","2.0.0","564739","pozqcr1djfz","deer","nope","0","Which of these items did you see earlier?","","","","","test","","state","true","stimuli/organized/STATE/USED/Spie2.JPG","stimuli/organized/STATE/USED/Spie1.JPG","0"
"","1231","html-button-response","228","2.0.0","565971","pozqcr1djfz","deer","nope","0","Which of these items did you see earlier?","","","","","test","","state","true","stimuli/organized/STATE/USED/Sbrushes1.jpg","stimuli/organized/STATE/USED/Sbrushes2.jpg","0"
"","1731","html-button-response","229","2.0.0","567705","pozqcr1djfz","deer","nope","0","Which of these items did you see earlier?","","","","","test","","exemplar","true","stimuli/organized/EXEMPLAR/USED/Egrapes1.jpg","stimuli/organized/EXEMPLAR/USED/Egrapes2.jpg","0"
"","2415","html-button-response","230","2.0.0","570121","pozqcr1djfz","deer","nope","1","Which of these items did you see earlier?","","","","","test","","exemplar","false","stimuli/organized/EXEMPLAR/USED/Ebasket2.jpg","stimuli/organized/EXEMPLAR/USED/Ebasket1.jpg","0"
"","2216","html-button-response","231","2.0.0","572339","pozqcr1djfz","deer","nope","1","Which of these items did you see earlier?","","","","","test","","state","false","stimuli/organized/STATE/USED/Schinesefoodbox1.jpg","stimuli/organized/STATE/USED/Schinesefoodbox2.jpg","0"
"","2298","html-button-response","232","2.0.0","574639","pozqcr1djfz","deer","nope","0","Which of these items did you see earlier?","","","","","test","","state","true","stimuli/organized/STATE/USED/Sgiftbox1.jpg","stimuli/organized/STATE/USED/Sgiftbox2.jpg","0"
"","2864","html-button-response","233","2.0.0","577505","pozqcr1djfz","deer","nope","0","Which of these items did you see earlier?","","","","","test","","state","true","stimuli/organized/STATE/USED/Sdrum1.jpg","stimuli/organized/STATE/USED/Sdrum2.jpg","0"
"","3233","html-button-response","234","2.0.0","580739","pozqcr1djfz","deer","nope","0","Which of these items did you see earlier?","","","","","test","","exemplar","true","stimuli/organized/EXEMPLAR/USED/Egoggles2.jpg","stimuli/organized/EXEMPLAR/USED/Egoggles1.jpg","0"
"","1397","html-button-response","235","2.0.0","582138","pozqcr1djfz","deer","nope","1","Which of these items did you see earlier?","","","","","test","","novel","true","stimuli/organized/Novel pairs (tested)/n20bshelf.jpg","stimuli/organized/Novel pairs (tested)/n20acarseat.jpg","1"
"","1416","html-button-response","236","2.0.0","583556","pozqcr1djfz","deer","nope","0","Which of these items did you see earlier?","","","","","test","","state","true","stimuli/organized/STATE/USED/Sbabytoy2.JPG","stimuli/organized/STATE/USED/Sbabytoy1.JPG","0"
"","1415","html-button-response","237","2.0.0","584972","pozqcr1djfz","deer","nope","1","Which of these items did you see earlier?","","","","","test","","exemplar","true","stimuli/organized/EXEMPLAR/USED/Efeather1.jpg","stimuli/organized/EXEMPLAR/USED/Efeather2.jpg","1"
"","1297","html-button-response","238","2.0.0","586271","pozqcr1djfz","deer","nope","0","Which of these items did you see earlier?","","","","","test","","state","true","stimuli/organized/STATE/USED/Sdresser1.jpg","stimuli/organized/STATE/USED/Sdresser2.jpg","0"
"","1266","html-button-response","239","2.0.0","587537","pozqcr1djfz","deer","nope","0","Which of these items did you see earlier?","","","","","test","","state","true","stimuli/organized/STATE/USED/Scrayons1.jpg","stimuli/organized/STATE/USED/Scrayons2.jpg","0"
"","1099","html-button-response","240","2.0.0","588639","pozqcr1djfz","deer","nope","0","Which of these items did you see earlier?","","","","","test","","novel","true","stimuli/organized/Novel pairs (tested)/n14bgolfball.jpg","stimuli/organized/Novel pairs (tested)/n14acigarette.jpg","0"
"","998","html-button-response","241","2.0.0","589638","pozqcr1djfz","deer","nope","1","Which of these items did you see earlier?","","","","","test","","novel","true","stimuli/organized/Novel pairs (tested)/n18apretzel.jpg","stimuli/organized/Novel pairs (tested)/n18bsnail.jpg","1"
"","2482","html-button-response","242","2.0.0","592122","pozqcr1djfz","deer","nope","0","Which of these items did you see earlier?","","","","","test","","state","false","stimuli/organized/STATE/USED/Seggs2.jpg","stimuli/organized/STATE/USED/Seggs1.jpg","1"
"","1664","html-button-response","243","2.0.0","593788","pozqcr1djfz","deer","nope","0","Which of these items did you see earlier?","","","","","test","","exemplar","true","stimuli/organized/EXEMPLAR/USED/Ecar2.jpg","stimuli/organized/EXEMPLAR/USED/Ecar1.jpg","0"
"","7816","survey-html-form","244","2.0.0","601608","pozqcr1djfz","deer","nope","{""age"":""20"",""gender"":""female"",""memory_experiment_experience"":""yes""}","","","","","","","","","","","",""
"","33463","survey-text","245","2.0.0","635073","pozqcr1djfz","deer","nope","{""task_guess"":""I believe it was about seeing what we describe as \""prototypes\"" for what the image might be instead of the actual image we did see.""}","","","","","","","","","","","",""
"","4615","survey-text","246","2.0.0","639690","pozqcr1djfz","deer","nope","{""technical_issues_question"":""nope""}","","","","","","","","","","","",""
