"success","rt","trial_type","trial_index","plugin_version","time_elapsed","random_id","participant","technical_issues","response","stimulus","timeout","failed_images","failed_audio","failed_video","trial_phase","is_repeat","test_type","correct","old_image","new_image","correct_position"
"true","1631620","fullscreen","0","null","1632551","pqryfxp01ad","seal","Nope","","","","","","","","","","","","",""
"","5943","survey-text","1","2.0.0","1638502","pqryfxp01ad","seal","Nope","{""participant_id"":""seal""}","","","","","","","","","","","",""
"","6369","html-keyboard-response","2","2.0.0","1644873","pqryfxp01ad","seal","Nope"," ","
      <p>In this experiment, a series of objects will be displayed.</p>
      <p>Try to memorize as much as possible about the objects.</p>
      <p>If the image is a <strong> repeat</strong>, press the SPACEBAR.</p>
      <p>Press any key to begin.</p>
    ","","","","","","","","","","",""
"true","","preload","3","2.0.0","1646725","pqryfxp01ad","seal","Nope","","","false","[]","[]","[]","","","","","","",""
"","null","html-keyboard-response","4","2.0.0","1647728","pqryfxp01ad","seal","Nope","null","<div style=""font-size:60px;"">+</div>","","","","","","","","","","",""
"","null","image-keyboard-response","5","2.0.0","1650738","pqryfxp01ad","seal","Nope","null","stimuli/organized/STATE/USED/Sbriefcase1.jpg","","","","","memory","false","state","true","","",""
"","null","html-keyboard-response","6","2.0.0","1651740","pqryfxp01ad","seal","Nope","null","<div style=""font-size:60px; color:black;"">+</div>","","","","","","","","","","",""
"","null","image-keyboard-response","7","2.0.0","1654744","pqryfxp01ad","seal","Nope","null","stimuli/organized/EXEMPLAR/USED/Egoggles1.jpg","","","","","memory","false","exemplar","true","","",""
"","null","html-keyboard-response","8","2.0.0","1655747","pqryfxp01ad","seal","Nope","null","<div style=""font-size:60px; color:black;"">+</div>","","","","","","","","","","",""
"","null","image-keyboard-response","9","2.0.0","1658751","pqryfxp01ad","seal","Nope","null","stimuli/organized/STATE/USED/Sbelt2.jpg","","","","","memory","false","state","true","","",""
"","null","html-keyboard-response","10","2.0.0","1659754","pqryfxp01ad","seal","Nope","null","<div style=""font-size:60px; color:black;"">+</div>","","","","","","","","","","",""
"","null","image-keyboard-response","11","2.0.0","1662758","pqryfxp01ad","seal","Nope","null","stimuli/organized/STATE/USED/Sscanner2.JPG","","","","","memory","false","state","true","","",""
"","null","html-keyboard-response","12","2.0.0","1663761","pqryfxp01ad","seal","Nope","null","<div style=""font-size:60px; color:black;"">+</div>","","","","","","","","","","",""
"","null","image-keyboard-response","13","2.0.0","1666765","pqryfxp01ad","seal","Nope","null","stimuli/organized/EXEMPLAR/USED/Egame2.jpg","","","","","memory","false","exemplar","true","","",""
"","null","html-keyboard-response","14","2.0.0","1667767","pqryfxp01ad","seal","Nope","null","<div style=""font-size:60px; color:black;"">+</div>","","","","","","","","","","",""
"","null","image-keyboard-response","15","2.0.0","1670770","pqryfxp01ad","seal","Nope","null","stimuli/organized/Novel pairs (tested)/n03acamel.jpg","","","","","memory","false","novel","true","","",""
"","null","html-keyboard-response","16","2.0.0","1671773","pqryfxp01ad","seal","Nope","null","<div style=""font-size:60px; color:black;"">+</div>","","","","","","","","","","",""
"","null","image-keyboard-response","17","2.0.0","1674777","pqryfxp01ad","seal","Nope","null","stimuli/organized/STATE/USED/Scookies1.JPG","","","","","memory","false","state","true","","",""
"","null","html-keyboard-response","18","2.0.0","1675780","pqryfxp01ad","seal","Nope","null","<div style=""font-size:60px; color:black;"">+</div>","","","","","","","","","","",""
"","null","image-keyboard-response","19","2.0.0","1678784","pqryfxp01ad","seal","Nope","null","stimuli/organized/STATE/USED/Spie2.JPG","","","","","memory","false","state","true","","",""
"","null","html-keyboard-response","20","2.0.0","1679787","pqryfxp01ad","seal","Nope","null","<div style=""font-size:60px; color:black;"">+</div>","","","","","","","","","","",""
"","null","image-keyboard-response","21","2.0.0","1682791","pqryfxp01ad","seal","Nope","null","stimuli/organized/STATE/USED/Sbreadbox2.JPG","","","","","memory","false","state","true","","",""
"","null","html-keyboard-response","22","2.0.0","1683794","pqryfxp01ad","seal","Nope","null","<div style=""font-size:60px; color:black;"">+</div>","","","","","","","","","","",""
"","null","image-keyboard-response","23","2.0.0","1686797","pqryfxp01ad","seal","Nope","null","stimuli/organized/Novel pairs (tested)/n09apenguin.jpg","","","","","memory","false","novel","true","","",""
"","null","html-keyboard-response","24","2.0.0","1687801","pqryfxp01ad","seal","Nope","null","<div style=""font-size:60px; color:black;"">+</div>","","","","","","","","","","",""
"","null","image-keyboard-response","25","2.0.0","1690805","pqryfxp01ad","seal","Nope","null","stimuli/organized/STATE/USED/Sphone2.JPG","","","","","memory","false","state","true","","",""
"","null","html-keyboard-response","26","2.0.0","1691807","pqryfxp01ad","seal","Nope","null","<div style=""font-size:60px; color:black;"">+</div>","","","","","","","","","","",""
"","null","image-keyboard-response","27","2.0.0","1694811","pqryfxp01ad","seal","Nope","null","stimuli/organized/STATE/USED/Sdrum2.jpg","","","","","memory","false","state","true","","",""
"","null","html-keyboard-response","28","2.0.0","1695813","pqryfxp01ad","seal","Nope","null","<div style=""font-size:60px; color:black;"">+</div>","","","","","","","","","","",""
"","null","image-keyboard-response","29","2.0.0","1698817","pqryfxp01ad","seal","Nope","null","stimuli/organized/EXEMPLAR/USED/Edispenser1.jpg","","","","","memory","false","exemplar","true","","",""
"","null","html-keyboard-response","30","2.0.0","1699820","pqryfxp01ad","seal","Nope","null","<div style=""font-size:60px; color:black;"">+</div>","","","","","","","","","","",""
"","null","image-keyboard-response","31","2.0.0","1702823","pqryfxp01ad","seal","Nope","null","stimuli/organized/EXEMPLAR/USED/Ebasket2.jpg","","","","","memory","false","exemplar","true","","",""
"","null","html-keyboard-response","32","2.0.0","1703826","pqryfxp01ad","seal","Nope","null","<div style=""font-size:60px; color:black;"">+</div>","","","","","","","","","","",""
"","null","image-keyboard-response","33","2.0.0","1706828","pqryfxp01ad","seal","Nope","null","stimuli/organized/STATE/USED/Seggs1.jpg","","","","","memory","false","state","true","","",""
"","null","html-keyboard-response","34","2.0.0","1707831","pqryfxp01ad","seal","Nope","null","<div style=""font-size:60px; color:black;"">+</div>","","","","","","","","","","",""
"","2","image-keyboard-response","35","2.0.0","1710835","pqryfxp01ad","seal","Nope"," ","stimuli/organized/EXEMPLAR/USED/Efeather2.jpg","","","","","memory","false","exemplar","false","","",""
"","null","html-keyboard-response","36","2.0.0","1711838","pqryfxp01ad","seal","Nope","null","<div style=""font-size:60px; color:red;"">+</div>","","","","","","","","","","",""
"","null","image-keyboard-response","37","2.0.0","1714841","pqryfxp01ad","seal","Nope","null","stimuli/organized/STATE/USED/Sdresser2.jpg","","","","","memory","false","state","true","","",""
"","null","html-keyboard-response","38","2.0.0","1715843","pqryfxp01ad","seal","Nope","null","<div style=""font-size:60px; color:black;"">+</div>","","","","","","","","","","",""
"","null","image-keyboard-response","39","2.0.0","1718846","pqryfxp01ad","seal","Nope","null","stimuli/organized/STATE/USED/Sbrushes2.jpg","","","","","memory","false","state","true","","",""
"","null","html-keyboard-response","40","2.0.0","1719847","pqryfxp01ad","seal","Nope","null","<div style=""font-size:60px; color:black;"">+</div>","","","","","","","","","","",""
"","null","image-keyboard-response","41","2.0.0","1722850","pqryfxp01ad","seal","Nope","null","stimuli/organized/STATE/USED/Sgrinder1.jpg","","","","","memory","false","state","true","","",""
"","null","html-keyboard-response","42","2.0.0","1723853","pqryfxp01ad","seal","Nope","null","<div style=""font-size:60px; color:black;"">+</div>","","","","","","","","","","",""
"","null","image-keyboard-response","43","2.0.0","1726857","pqryfxp01ad","seal","Nope","null","stimuli/organized/Novel pairs (tested)/n19bhairbrush.jpg","","","","","memory","false","novel","true","","",""
"","null","html-keyboard-response","44","2.0.0","1727860","pqryfxp01ad","seal","Nope","null","<div style=""font-size:60px; color:black;"">+</div>","","","","","","","","","","",""
"","null","image-keyboard-response","45","2.0.0","1730863","pqryfxp01ad","seal","Nope","null","stimuli/organized/Novel pairs (tested)/n10bturkey.jpg","","","","","memory","false","novel","true","","",""
"","null","html-keyboard-response","46","2.0.0","1731866","pqryfxp01ad","seal","Nope","null","<div style=""font-size:60px; color:black;"">+</div>","","","","","","","","","","",""
"","null","image-keyboard-response","47","2.0.0","1734868","pqryfxp01ad","seal","Nope","null","stimuli/organized/STATE/USED/Sdishes1.JPG","","","","","memory","false","state","true","","",""
"","null","html-keyboard-response","48","2.0.0","1735871","pqryfxp01ad","seal","Nope","null","<div style=""font-size:60px; color:black;"">+</div>","","","","","","","","","","",""
"","null","image-keyboard-response","49","2.0.0","1738874","pqryfxp01ad","seal","Nope","null","stimuli/organized/STATE/USED/Scoffeemaker1.JPG","","","","","memory","false","state","true","","",""
"","null","html-keyboard-response","50","2.0.0","1739876","pqryfxp01ad","seal","Nope","null","<div style=""font-size:60px; color:black;"">+</div>","","","","","","","","","","",""
"","null","image-keyboard-response","51","2.0.0","1742880","pqryfxp01ad","seal","Nope","null","stimuli/organized/EXEMPLAR/USED/Eframe1.jpg","","","","","memory","false","exemplar","true","","",""
"","null","html-keyboard-response","52","2.0.0","1743883","pqryfxp01ad","seal","Nope","null","<div style=""font-size:60px; color:black;"">+</div>","","","","","","","","","","",""
"","null","image-keyboard-response","53","2.0.0","1746886","pqryfxp01ad","seal","Nope","null","stimuli/organized/EXEMPLAR/USED/Egrapes1.jpg","","","","","memory","false","exemplar","true","","",""
"","null","html-keyboard-response","54","2.0.0","1747889","pqryfxp01ad","seal","Nope","null","<div style=""font-size:60px; color:black;"">+</div>","","","","","","","","","","",""
"","null","image-keyboard-response","55","2.0.0","1750893","pqryfxp01ad","seal","Nope","null","stimuli/organized/Novel pairs (tested)/n16bhammer.jpg","","","","","memory","false","novel","true","","",""
"","null","html-keyboard-response","56","2.0.0","1751895","pqryfxp01ad","seal","Nope","null","<div style=""font-size:60px; color:black;"">+</div>","","","","","","","","","","",""
"","null","image-keyboard-response","57","2.0.0","1754899","pqryfxp01ad","seal","Nope","null","stimuli/organized/STATE/USED/Sdie2.jpg","","","","","memory","false","state","true","","",""
"","null","html-keyboard-response","58","2.0.0","1755901","pqryfxp01ad","seal","Nope","null","<div style=""font-size:60px; color:black;"">+</div>","","","","","","","","","","",""
"","null","image-keyboard-response","59","2.0.0","1758905","pqryfxp01ad","seal","Nope","null","stimuli/organized/Novel pairs (tested)/n05bcactus.jpg","","","","","memory","false","novel","true","","",""
"","null","html-keyboard-response","60","2.0.0","1759908","pqryfxp01ad","seal","Nope","null","<div style=""font-size:60px; color:black;"">+</div>","","","","","","","","","","",""
"","null","image-keyboard-response","61","2.0.0","1762911","pqryfxp01ad","seal","Nope","null","stimuli/organized/EXEMPLAR/USED/Ecalculator2.jpg","","","","","memory","false","exemplar","true","","",""
"","null","html-keyboard-response","62","2.0.0","1763914","pqryfxp01ad","seal","Nope","null","<div style=""font-size:60px; color:black;"">+</div>","","","","","","","","","","",""
"","null","image-keyboard-response","63","2.0.0","1766917","pqryfxp01ad","seal","Nope","null","stimuli/organized/Novel pairs (tested)/n13bdustpan.jpg","","","","","memory","false","novel","true","","",""
"","null","html-keyboard-response","64","2.0.0","1767920","pqryfxp01ad","seal","Nope","null","<div style=""font-size:60px; color:black;"">+</div>","","","","","","","","","","",""
"","null","image-keyboard-response","65","2.0.0","1770923","pqryfxp01ad","seal","Nope","null","stimuli/organized/Novel pairs (tested)/n04ayarn.jpg","","","","","memory","false","novel","true","","",""
"","null","html-keyboard-response","66","2.0.0","1771925","pqryfxp01ad","seal","Nope","null","<div style=""font-size:60px; color:black;"">+</div>","","","","","","","","","","",""
"","null","image-keyboard-response","67","2.0.0","1774929","pqryfxp01ad","seal","Nope","null","stimuli/organized/STATE/USED/Scontainer2.JPG","","","","","memory","false","state","true","","",""
"","null","html-keyboard-response","68","2.0.0","1775932","pqryfxp01ad","seal","Nope","null","<div style=""font-size:60px; color:black;"">+</div>","","","","","","","","","","",""
"","null","image-keyboard-response","69","2.0.0","1778935","pqryfxp01ad","seal","Nope","null","stimuli/organized/STATE/USED/Sfiretrucktoy1.jpg","","","","","memory","false","state","true","","",""
"","null","html-keyboard-response","70","2.0.0","1779938","pqryfxp01ad","seal","Nope","null","<div style=""font-size:60px; color:black;"">+</div>","","","","","","","","","","",""
"","622","image-keyboard-response","71","2.0.0","1782941","pqryfxp01ad","seal","Nope"," ","stimuli/organized/Novel pairs (tested)/n18bsnail.jpg","","","","","memory","false","novel","false","","",""
"","null","html-keyboard-response","72","2.0.0","1783942","pqryfxp01ad","seal","Nope","null","<div style=""font-size:60px; color:red;"">+</div>","","","","","","","","","","",""
"","1724","image-keyboard-response","73","2.0.0","1786945","pqryfxp01ad","seal","Nope"," ","stimuli/organized/STATE/USED/Shairbrush2.jpg","","","","","memory","false","state","false","","",""
"","null","html-keyboard-response","74","2.0.0","1787948","pqryfxp01ad","seal","Nope","null","<div style=""font-size:60px; color:red;"">+</div>","","","","","","","","","","",""
"","null","image-keyboard-response","75","2.0.0","1790952","pqryfxp01ad","seal","Nope","null","stimuli/organized/EXEMPLAR/USED/Ebread1.jpg","","","","","memory","false","exemplar","true","","",""
"","null","html-keyboard-response","76","2.0.0","1791955","pqryfxp01ad","seal","Nope","null","<div style=""font-size:60px; color:black;"">+</div>","","","","","","","","","","",""
"","null","image-keyboard-response","77","2.0.0","1794958","pqryfxp01ad","seal","Nope","null","stimuli/organized/Novel pairs (tested)/n07apotato.jpg","","","","","memory","false","novel","true","","",""
"","null","html-keyboard-response","78","2.0.0","1795961","pqryfxp01ad","seal","Nope","null","<div style=""font-size:60px; color:black;"">+</div>","","","","","","","","","","",""
"","null","image-keyboard-response","79","2.0.0","1798965","pqryfxp01ad","seal","Nope","null","stimuli/organized/STATE/USED/Sdryer1.jpg","","","","","memory","false","state","true","","",""
"","null","html-keyboard-response","80","2.0.0","1799967","pqryfxp01ad","seal","Nope","null","<div style=""font-size:60px; color:black;"">+</div>","","","","","","","","","","",""
"","null","image-keyboard-response","81","2.0.0","1802971","pqryfxp01ad","seal","Nope","null","stimuli/organized/Novel pairs (tested)/n06blipstick.jpg","","","","","memory","false","novel","true","","",""
"","null","html-keyboard-response","82","2.0.0","1803974","pqryfxp01ad","seal","Nope","null","<div style=""font-size:60px; color:black;"">+</div>","","","","","","","","","","",""
"","1328","image-keyboard-response","83","2.0.0","1806977","pqryfxp01ad","seal","Nope"," ","stimuli/organized/EXEMPLAR/USED/Echisel1.jpg","","","","","memory","false","exemplar","false","","",""
"","null","html-keyboard-response","84","2.0.0","1807980","pqryfxp01ad","seal","Nope","null","<div style=""font-size:60px; color:red;"">+</div>","","","","","","","","","","",""
"","null","image-keyboard-response","85","2.0.0","1810983","pqryfxp01ad","seal","Nope","null","stimuli/organized/STATE/USED/Sapplesgreenbasket1.jpg","","","","","memory","false","state","true","","",""
"","null","html-keyboard-response","86","2.0.0","1811986","pqryfxp01ad","seal","Nope","null","<div style=""font-size:60px; color:black;"">+</div>","","","","","","","","","","",""
"","null","image-keyboard-response","87","2.0.0","1814989","pqryfxp01ad","seal","Nope","null","stimuli/organized/Novel pairs (tested)/n01aladybug.jpg","","","","","memory","false","novel","true","","",""
"","null","html-keyboard-response","88","2.0.0","1815990","pqryfxp01ad","seal","Nope","null","<div style=""font-size:60px; color:black;"">+</div>","","","","","","","","","","",""
"","null","image-keyboard-response","89","2.0.0","1818994","pqryfxp01ad","seal","Nope","null","stimuli/organized/Novel pairs (tested)/n15bfootball.jpg","","","","","memory","false","novel","true","","",""
"","null","html-keyboard-response","90","2.0.0","1819997","pqryfxp01ad","seal","Nope","null","<div style=""font-size:60px; color:black;"">+</div>","","","","","","","","","","",""
"","787","image-keyboard-response","91","2.0.0","1823000","pqryfxp01ad","seal","Nope"," ","stimuli/organized/Novel pairs (tested)/n06blipstick.jpg","","","","","memory","true","novel","true","","",""
"","null","html-keyboard-response","92","2.0.0","1824002","pqryfxp01ad","seal","Nope","null","<div style=""font-size:60px; color:green;"">+</div>","","","","","","","","","","",""
"","null","image-keyboard-response","93","2.0.0","1827006","pqryfxp01ad","seal","Nope","null","stimuli/organized/STATE/USED/Slaptop1.JPG","","","","","memory","false","state","true","","",""
"","null","html-keyboard-response","94","2.0.0","1828009","pqryfxp01ad","seal","Nope","null","<div style=""font-size:60px; color:black;"">+</div>","","","","","","","","","","",""
"","null","image-keyboard-response","95","2.0.0","1831013","pqryfxp01ad","seal","Nope","null","stimuli/organized/EXEMPLAR/USED/Ecar2.jpg","","","","","memory","false","exemplar","true","","",""
"","null","html-keyboard-response","96","2.0.0","1832014","pqryfxp01ad","seal","Nope","null","<div style=""font-size:60px; color:black;"">+</div>","","","","","","","","","","",""
"","null","image-keyboard-response","97","2.0.0","1835018","pqryfxp01ad","seal","Nope","null","stimuli/organized/STATE/USED/Sflask1.jpg","","","","","memory","false","state","true","","",""
"","null","html-keyboard-response","98","2.0.0","1836021","pqryfxp01ad","seal","Nope","null","<div style=""font-size:60px; color:black;"">+</div>","","","","","","","","","","",""
"","931","image-keyboard-response","99","2.0.0","1839025","pqryfxp01ad","seal","Nope"," ","stimuli/organized/Novel pairs (tested)/n19bhairbrush.jpg","","","","","memory","true","novel","true","","",""
"","null","html-keyboard-response","100","2.0.0","1840028","pqryfxp01ad","seal","Nope","null","<div style=""font-size:60px; color:green;"">+</div>","","","","","","","","","","",""
"","null","image-keyboard-response","101","2.0.0","1843031","pqryfxp01ad","seal","Nope","null","stimuli/organized/EXEMPLAR/USED/Eglobe1.jpg","","","","","memory","false","exemplar","true","","",""
"","null","html-keyboard-response","102","2.0.0","1844034","pqryfxp01ad","seal","Nope","null","<div style=""font-size:60px; color:black;"">+</div>","","","","","","","","","","",""
"","null","image-keyboard-response","103","2.0.0","1847038","pqryfxp01ad","seal","Nope","null","stimuli/organized/Novel pairs (tested)/n14bgolfball.jpg","","","","","memory","false","novel","true","","",""
"","null","html-keyboard-response","104","2.0.0","1848041","pqryfxp01ad","seal","Nope","null","<div style=""font-size:60px; color:black;"">+</div>","","","","","","","","","","",""
"","null","image-keyboard-response","105","2.0.0","1851045","pqryfxp01ad","seal","Nope","null","stimuli/organized/STATE/USED/Schinesefoodbox1.jpg","","","","","memory","false","state","true","","",""
"","null","html-keyboard-response","106","2.0.0","1852048","pqryfxp01ad","seal","Nope","null","<div style=""font-size:60px; color:black;"">+</div>","","","","","","","","","","",""
"","null","image-keyboard-response","107","2.0.0","1855051","pqryfxp01ad","seal","Nope","null","stimuli/organized/EXEMPLAR/USED/Efan2.jpg","","","","","memory","false","exemplar","true","","",""
"","null","html-keyboard-response","108","2.0.0","1856054","pqryfxp01ad","seal","Nope","null","<div style=""font-size:60px; color:black;"">+</div>","","","","","","","","","","",""
"","null","image-keyboard-response","109","2.0.0","1859056","pqryfxp01ad","seal","Nope","null","stimuli/organized/STATE/USED/Sbureau2.JPG","","","","","memory","false","state","true","","",""
"","null","html-keyboard-response","110","2.0.0","1860059","pqryfxp01ad","seal","Nope","null","<div style=""font-size:60px; color:black;"">+</div>","","","","","","","","","","",""
"","null","image-keyboard-response","111","2.0.0","1863063","pqryfxp01ad","seal","Nope","null","stimuli/organized/STATE/USED/Sbooks1.JPG","","","","","memory","false","state","true","","",""
"","null","html-keyboard-response","112","2.0.0","1864065","pqryfxp01ad","seal","Nope","null","<div style=""font-size:60px; color:black;"">+</div>","","","","","","","","","","",""
"","900","image-keyboard-response","113","2.0.0","1867069","pqryfxp01ad","seal","Nope"," ","stimuli/organized/STATE/USED/Sflask1.jpg","","","","","memory","true","state","true","","",""
"","null","html-keyboard-response","114","2.0.0","1868071","pqryfxp01ad","seal","Nope","null","<div style=""font-size:60px; color:green;"">+</div>","","","","","","","","","","",""
"","null","image-keyboard-response","115","2.0.0","1871075","pqryfxp01ad","seal","Nope","null","stimuli/organized/Novel pairs (tested)/n20acarseat.jpg","","","","","memory","false","novel","true","","",""
"","null","html-keyboard-response","116","2.0.0","1872077","pqryfxp01ad","seal","Nope","null","<div style=""font-size:60px; color:black;"">+</div>","","","","","","","","","","",""
"","3","image-keyboard-response","117","2.0.0","1875080","pqryfxp01ad","seal","Nope"," ","stimuli/organized/STATE/USED/Sgiftbox1.jpg","","","","","memory","false","state","false","","",""
"","null","html-keyboard-response","118","2.0.0","1876082","pqryfxp01ad","seal","Nope","null","<div style=""font-size:60px; color:red;"">+</div>","","","","","","","","","","",""
"","null","image-keyboard-response","119","2.0.0","1879085","pqryfxp01ad","seal","Nope","null","stimuli/organized/EXEMPLAR/USED/Ecabinet2.jpg","","","","","memory","false","exemplar","true","","",""
"","null","html-keyboard-response","120","2.0.0","1880088","pqryfxp01ad","seal","Nope","null","<div style=""font-size:60px; color:black;"">+</div>","","","","","","","","","","",""
"","null","image-keyboard-response","121","2.0.0","1883092","pqryfxp01ad","seal","Nope","null","stimuli/organized/STATE/USED/Sdonut1.jpg","","","","","memory","false","state","true","","",""
"","null","html-keyboard-response","122","2.0.0","1884095","pqryfxp01ad","seal","Nope","null","<div style=""font-size:60px; color:black;"">+</div>","","","","","","","","","","",""
"","null","image-keyboard-response","123","2.0.0","1887098","pqryfxp01ad","seal","Nope","null","stimuli/organized/EXEMPLAR/USED/Ebracelet2.jpg","","","","","memory","false","exemplar","true","","",""
"","null","html-keyboard-response","124","2.0.0","1888101","pqryfxp01ad","seal","Nope","null","<div style=""font-size:60px; color:black;"">+</div>","","","","","","","","","","",""
"","null","image-keyboard-response","125","2.0.0","1891105","pqryfxp01ad","seal","Nope","null","stimuli/organized/Novel pairs (tested)/n11abatteries.jpg","","","","","memory","false","novel","true","","",""
"","null","html-keyboard-response","126","2.0.0","1892108","pqryfxp01ad","seal","Nope","null","<div style=""font-size:60px; color:black;"">+</div>","","","","","","","","","","",""
"","17","image-keyboard-response","127","2.0.0","1895111","pqryfxp01ad","seal","Nope"," ","stimuli/organized/Novel pairs (tested)/n14bgolfball.jpg","","","","","memory","true","novel","true","","",""
"","null","html-keyboard-response","128","2.0.0","1896114","pqryfxp01ad","seal","Nope","null","<div style=""font-size:60px; color:green;"">+</div>","","","","","","","","","","",""
"","null","image-keyboard-response","129","2.0.0","1899118","pqryfxp01ad","seal","Nope","null","stimuli/organized/Novel pairs (tested)/n08bpaperclip.jpg","","","","","memory","false","novel","true","","",""
"","null","html-keyboard-response","130","2.0.0","1900120","pqryfxp01ad","seal","Nope","null","<div style=""font-size:60px; color:black;"">+</div>","","","","","","","","","","",""
"","null","image-keyboard-response","131","2.0.0","1903124","pqryfxp01ad","seal","Nope","null","stimuli/organized/STATE/USED/Spotpan2.JPG","","","","","memory","false","state","true","","",""
"","null","html-keyboard-response","132","2.0.0","1904127","pqryfxp01ad","seal","Nope","null","<div style=""font-size:60px; color:black;"">+</div>","","","","","","","","","","",""
"","null","image-keyboard-response","133","2.0.0","1907130","pqryfxp01ad","seal","Nope","null","stimuli/organized/EXEMPLAR/USED/Ecamera1.jpg","","","","","memory","false","exemplar","true","","",""
"","null","html-keyboard-response","134","2.0.0","1908134","pqryfxp01ad","seal","Nope","null","<div style=""font-size:60px; color:black;"">+</div>","","","","","","","","","","",""
"","null","image-keyboard-response","135","2.0.0","1911137","pqryfxp01ad","seal","Nope","null","stimuli/organized/Novel pairs (tested)/n02bsafetypin.jpg","","","","","memory","false","novel","true","","",""
"","null","html-keyboard-response","136","2.0.0","1912140","pqryfxp01ad","seal","Nope","null","<div style=""font-size:60px; color:black;"">+</div>","","","","","","","","","","",""
"","null","image-keyboard-response","137","2.0.0","1915143","pqryfxp01ad","seal","Nope","null","stimuli/organized/STATE/USED/Sbabytoy2.JPG","","","","","memory","false","state","true","","",""
"","null","html-keyboard-response","138","2.0.0","1916146","pqryfxp01ad","seal","Nope","null","<div style=""font-size:60px; color:black;"">+</div>","","","","","","","","","","",""
"","null","image-keyboard-response","139","2.0.0","1919149","pqryfxp01ad","seal","Nope","null","stimuli/organized/STATE/USED/Sscissors1.JPG","","","","","memory","false","state","true","","",""
"","null","html-keyboard-response","140","2.0.0","1920152","pqryfxp01ad","seal","Nope","null","<div style=""font-size:60px; color:black;"">+</div>","","","","","","","","","","",""
"","678","image-keyboard-response","141","2.0.0","1923156","pqryfxp01ad","seal","Nope"," ","stimuli/organized/EXEMPLAR/USED/Eglobe1.jpg","","","","","memory","true","exemplar","true","","",""
"","null","html-keyboard-response","142","2.0.0","1924158","pqryfxp01ad","seal","Nope","null","<div style=""font-size:60px; color:green;"">+</div>","","","","","","","","","","",""
"","null","image-keyboard-response","143","2.0.0","1927161","pqryfxp01ad","seal","Nope","null","stimuli/organized/Novel pairs (tested)/n12bwatch.jpg","","","","","memory","false","novel","true","","",""
"","null","html-keyboard-response","144","2.0.0","1928164","pqryfxp01ad","seal","Nope","null","<div style=""font-size:60px; color:black;"">+</div>","","","","","","","","","","",""
"","null","image-keyboard-response","145","2.0.0","1931168","pqryfxp01ad","seal","Nope","null","stimuli/organized/STATE/USED/Sgiftbag2.jpg","","","","","memory","false","state","true","","",""
"","null","html-keyboard-response","146","2.0.0","1932171","pqryfxp01ad","seal","Nope","null","<div style=""font-size:60px; color:black;"">+</div>","","","","","","","","","","",""
"","null","image-keyboard-response","147","2.0.0","1935175","pqryfxp01ad","seal","Nope","null","stimuli/organized/EXEMPLAR/USED/Echocolatebar1.jpg","","","","","memory","false","exemplar","true","","",""
"","null","html-keyboard-response","148","2.0.0","1936178","pqryfxp01ad","seal","Nope","null","<div style=""font-size:60px; color:black;"">+</div>","","","","","","","","","","",""
"","null","image-keyboard-response","149","2.0.0","1939182","pqryfxp01ad","seal","Nope","null","stimuli/organized/STATE/USED/Scrayons1.jpg","","","","","memory","false","state","true","","",""
"","null","html-keyboard-response","150","2.0.0","1940184","pqryfxp01ad","seal","Nope","null","<div style=""font-size:60px; color:black;"">+</div>","","","","","","","","","","",""
"","null","image-keyboard-response","151","2.0.0","1943188","pqryfxp01ad","seal","Nope","null","stimuli/organized/EXEMPLAR/USED/Ebell2.jpg","","","","","memory","false","exemplar","true","","",""
"","null","html-keyboard-response","152","2.0.0","1944190","pqryfxp01ad","seal","Nope","null","<div style=""font-size:60px; color:black;"">+</div>","","","","","","","","","","",""
"","null","image-keyboard-response","153","2.0.0","1947193","pqryfxp01ad","seal","Nope","null","stimuli/organized/STATE/USED/Sjuiceglass1.JPG","","","","","memory","false","state","true","","",""
"","null","html-keyboard-response","154","2.0.0","1948196","pqryfxp01ad","seal","Nope","null","<div style=""font-size:60px; color:black;"">+</div>","","","","","","","","","","",""
"","null","image-keyboard-response","155","2.0.0","1951199","pqryfxp01ad","seal","Nope","null","stimuli/organized/EXEMPLAR/USED/Ebicycle1.jpg","","","","","memory","false","exemplar","true","","",""
"","null","html-keyboard-response","156","2.0.0","1952201","pqryfxp01ad","seal","Nope","null","<div style=""font-size:60px; color:black;"">+</div>","","","","","","","","","","",""
"","1172","image-keyboard-response","157","2.0.0","1955205","pqryfxp01ad","seal","Nope"," ","stimuli/organized/STATE/USED/Sabacus1.jpg","","","","","memory","false","state","false","","",""
"","null","html-keyboard-response","158","2.0.0","1956208","pqryfxp01ad","seal","Nope","null","<div style=""font-size:60px; color:red;"">+</div>","","","","","","","","","","",""
"","null","image-keyboard-response","159","2.0.0","1959211","pqryfxp01ad","seal","Nope","null","stimuli/organized/EXEMPLAR/USED/Econe2.jpg","","","","","memory","false","exemplar","true","","",""
"","null","html-keyboard-response","160","2.0.0","1960214","pqryfxp01ad","seal","Nope","null","<div style=""font-size:60px; color:black;"">+</div>","","","","","","","","","","",""
"","null","image-keyboard-response","161","2.0.0","1963217","pqryfxp01ad","seal","Nope","null","stimuli/organized/STATE/USED/Sbox1.jpg","","","","","memory","false","state","true","","",""
"","null","html-keyboard-response","162","2.0.0","1964219","pqryfxp01ad","seal","Nope","null","<div style=""font-size:60px; color:black;"">+</div>","","","","","","","","","","",""
"","null","image-keyboard-response","163","2.0.0","1967223","pqryfxp01ad","seal","Nope","null","stimuli/organized/Novel pairs (tested)/n17avendingmachine.jpg","","","","","memory","false","novel","true","","",""
"","null","html-keyboard-response","164","2.0.0","1968225","pqryfxp01ad","seal","Nope","null","<div style=""font-size:60px; color:black;"">+</div>","","","","","","","","","","",""
"","null","image-keyboard-response","165","2.0.0","1971229","pqryfxp01ad","seal","Nope","null","stimuli/organized/STATE/USED/Sbottles2.JPG","","","","","memory","false","state","true","","",""
"","87182","html-button-response","166","2.0.0","2058412","pqryfxp01ad","seal","Nope","0","<p>You have completed the study phase.</p><p>Take a short break. Press the button below when you are ready to continue.</p>","","","","","","","","","","",""
"","6473","html-keyboard-response","167","2.0.0","2064886","pqryfxp01ad","seal","Nope"," ","<p>You will now be shown pairs of images.</p><p>Select the image you remember seeing during the study phase.</p><p>Focus on accuracy, not speed.</p><p>Press any key to begin.</p>","","","","","","","","","","",""
"","3955","html-button-response","168","2.0.0","2068843","pqryfxp01ad","seal","Nope","1","Which of these items did you see earlier?","","","","","test","","state","true","stimuli/organized/STATE/USED/Scoffeemaker1.JPG","stimuli/organized/STATE/USED/Scoffeemaker2.JPG","1"
"","1316","html-button-response","169","2.0.0","2070161","pqryfxp01ad","seal","Nope","1","Which of these items did you see earlier?","","","","","test","","novel","true","stimuli/organized/Novel pairs (tested)/n12bwatch.jpg","stimuli/organized/Novel pairs (tested)/n12atelescope.jpg","1"
"","2181","html-button-response","170","2.0.0","2072344","pqryfxp01ad","seal","Nope","1","Which of these items did you see earlier?","","","","","test","","novel","false","stimuli/organized/Novel pairs (tested)/n20acarseat.jpg","stimuli/organized/Novel pairs (tested)/n20bshelf.jpg","0"
"","1148","html-button-response","171","2.0.0","2073495","pqryfxp01ad","seal","Nope","0","Which of these items did you see earlier?","","","","","test","","novel","true","stimuli/organized/Novel pairs (tested)/n14bgolfball.jpg","stimuli/organized/Novel pairs (tested)/n14acigarette.jpg","0"
"","1114","html-button-response","172","2.0.0","2074611","pqryfxp01ad","seal","Nope","0","Which of these items did you see earlier?","","","","","test","","exemplar","true","stimuli/organized/EXEMPLAR/USED/Echisel1.jpg","stimuli/organized/EXEMPLAR/USED/Echisel2.jpg","0"
"","997","html-button-response","173","2.0.0","2075610","pqryfxp01ad","seal","Nope","0","Which of these items did you see earlier?","","","","","test","","novel","true","stimuli/organized/Novel pairs (tested)/n17avendingmachine.jpg","stimuli/organized/Novel pairs (tested)/n17bweddingdress.jpg","0"
"","2049","html-button-response","174","2.0.0","2077661","pqryfxp01ad","seal","Nope","1","Which of these items did you see earlier?","","","","","test","","state","false","stimuli/organized/STATE/USED/Sphone2.JPG","stimuli/organized/STATE/USED/Sphone1.JPG","0"
"","1215","html-button-response","175","2.0.0","2078878","pqryfxp01ad","seal","Nope","0","Which of these items did you see earlier?","","","","","test","","state","true","stimuli/organized/STATE/USED/Sgrinder1.jpg","stimuli/organized/STATE/USED/Sgrinder2.jpg","0"
"","1631","html-button-response","176","2.0.0","2080511","pqryfxp01ad","seal","Nope","1","Which of these items did you see earlier?","","","","","test","","novel","true","stimuli/organized/Novel pairs (tested)/n13bdustpan.jpg","stimuli/organized/Novel pairs (tested)/n13ablueberries.jpg","1"
"","732","html-button-response","177","2.0.0","2081244","pqryfxp01ad","seal","Nope","1","Which of these items did you see earlier?","","","","","test","","novel","true","stimuli/organized/Novel pairs (tested)/n19bhairbrush.jpg","stimuli/organized/Novel pairs (tested)/n19apickle.jpg","1"
"","1763","html-button-response","178","2.0.0","2083010","pqryfxp01ad","seal","Nope","0","Which of these items did you see earlier?","","","","","test","","state","true","stimuli/organized/STATE/USED/Sdonut1.jpg","stimuli/organized/STATE/USED/Sdonut2.jpg","0"
"","1233","html-button-response","179","2.0.0","2084244","pqryfxp01ad","seal","Nope","1","Which of these items did you see earlier?","","","","","test","","novel","true","stimuli/organized/Novel pairs (tested)/n10bturkey.jpg","stimuli/organized/Novel pairs (tested)/n10awindmill.jpg","1"
"","981","html-button-response","180","2.0.0","2085227","pqryfxp01ad","seal","Nope","1","Which of these items did you see earlier?","","","","","test","","state","true","stimuli/organized/STATE/USED/Sbreadbox2.JPG","stimuli/organized/STATE/USED/Sbreadbox1.JPG","1"
"","1198","html-button-response","181","2.0.0","2086427","pqryfxp01ad","seal","Nope","0","Which of these items did you see earlier?","","","","","test","","state","true","stimuli/organized/STATE/USED/Sdishes1.JPG","stimuli/organized/STATE/USED/Sdishes2.JPG","0"
"","1565","html-button-response","182","2.0.0","2087994","pqryfxp01ad","seal","Nope","1","Which of these items did you see earlier?","","","","","test","","state","true","stimuli/organized/STATE/USED/Sscissors1.JPG","stimuli/organized/STATE/USED/Sscissors2.JPG","1"
"","931","html-button-response","183","2.0.0","2088926","pqryfxp01ad","seal","Nope","0","Which of these items did you see earlier?","","","","","test","","novel","true","stimuli/organized/Novel pairs (tested)/n06blipstick.jpg","stimuli/organized/Novel pairs (tested)/n06acane.jpg","0"
"","2316","html-button-response","184","2.0.0","2091244","pqryfxp01ad","seal","Nope","0","Which of these items did you see earlier?","","","","","test","","state","true","stimuli/organized/STATE/USED/Scookies1.JPG","stimuli/organized/STATE/USED/Scookies2.JPG","0"
"","748","html-button-response","185","2.0.0","2091994","pqryfxp01ad","seal","Nope","0","Which of these items did you see earlier?","","","","","test","","exemplar","true","stimuli/organized/EXEMPLAR/USED/Econe2.jpg","stimuli/organized/EXEMPLAR/USED/Econe1.jpg","0"
"","1249","html-button-response","186","2.0.0","2093245","pqryfxp01ad","seal","Nope","1","Which of these items did you see earlier?","","","","","test","","state","true","stimuli/organized/STATE/USED/Shairbrush2.jpg","stimuli/organized/STATE/USED/Shairbrush1.jpg","1"
"","2364","html-button-response","187","2.0.0","2095610","pqryfxp01ad","seal","Nope","0","Which of these items did you see earlier?","","","","","test","","state","false","stimuli/organized/STATE/USED/Sfiretrucktoy1.jpg","stimuli/organized/STATE/USED/Sfiretrucktoy2.jpg","1"
"","1800","html-button-response","188","2.0.0","2097411","pqryfxp01ad","seal","Nope","0","Which of these items did you see earlier?","","","","","test","","exemplar","true","stimuli/organized/EXEMPLAR/USED/Egame2.jpg","stimuli/organized/EXEMPLAR/USED/Egame1.jpg","0"
"","1848","html-button-response","189","2.0.0","2099261","pqryfxp01ad","seal","Nope","1","Which of these items did you see earlier?","","","","","test","","exemplar","true","stimuli/organized/EXEMPLAR/USED/Ebell2.jpg","stimuli/organized/EXEMPLAR/USED/Ebell1.jpg","1"
"","1064","html-button-response","190","2.0.0","2100327","pqryfxp01ad","seal","Nope","1","Which of these items did you see earlier?","","","","","test","","state","true","stimuli/organized/STATE/USED/Sbottles2.JPG","stimuli/organized/STATE/USED/Sbottles1.JPG","1"
"","1132","html-button-response","191","2.0.0","2101460","pqryfxp01ad","seal","Nope","1","Which of these items did you see earlier?","","","","","test","","state","true","stimuli/organized/STATE/USED/Sdrum2.jpg","stimuli/organized/STATE/USED/Sdrum1.jpg","1"
"","1065","html-button-response","192","2.0.0","2102527","pqryfxp01ad","seal","Nope","1","Which of these items did you see earlier?","","","","","test","","novel","true","stimuli/organized/Novel pairs (tested)/n04ayarn.jpg","stimuli/organized/Novel pairs (tested)/n04bbandaid.jpg","1"
"","1231","html-button-response","193","2.0.0","2103760","pqryfxp01ad","seal","Nope","0","Which of these items did you see earlier?","","","","","test","","exemplar","true","stimuli/organized/EXEMPLAR/USED/Ebicycle1.jpg","stimuli/organized/EXEMPLAR/USED/Ebicycle2.jpg","0"
"","1049","html-button-response","194","2.0.0","2104811","pqryfxp01ad","seal","Nope","1","Which of these items did you see earlier?","","","","","test","","state","true","stimuli/organized/STATE/USED/Sapplesgreenbasket1.jpg","stimuli/organized/STATE/USED/Sapplesgreenbasket2.jpg","1"
"","2581","html-button-response","195","2.0.0","2107394","pqryfxp01ad","seal","Nope","0","Which of these items did you see earlier?","","","","","test","","state","true","stimuli/organized/STATE/USED/Scontainer2.JPG","stimuli/organized/STATE/USED/Scontainer1.JPG","0"
"","914","html-button-response","196","2.0.0","2108309","pqryfxp01ad","seal","Nope","1","Which of these items did you see earlier?","","","","","test","","novel","true","stimuli/organized/Novel pairs (tested)/n01aladybug.jpg","stimuli/organized/Novel pairs (tested)/n01bcoin.jpg","1"
"","2816","html-button-response","197","2.0.0","2111127","pqryfxp01ad","seal","Nope","0","Which of these items did you see earlier?","","","","","test","","state","false","stimuli/organized/STATE/USED/Sgiftbag2.jpg","stimuli/organized/STATE/USED/Sgiftbag1.jpg","1"
"","948","html-button-response","198","2.0.0","2112077","pqryfxp01ad","seal","Nope","0","Which of these items did you see earlier?","","","","","test","","state","true","stimuli/organized/STATE/USED/Schinesefoodbox1.jpg","stimuli/organized/STATE/USED/Schinesefoodbox2.jpg","0"
"","1331","html-button-response","199","2.0.0","2113410","pqryfxp01ad","seal","Nope","0","Which of these items did you see earlier?","","","","","test","","state","false","stimuli/organized/STATE/USED/Sjuiceglass1.JPG","stimuli/organized/STATE/USED/Sjuiceglass2.JPG","1"
"","1048","html-button-response","200","2.0.0","2114460","pqryfxp01ad","seal","Nope","0","Which of these items did you see earlier?","","","","","test","","state","true","stimuli/organized/STATE/USED/Sdryer1.jpg","stimuli/organized/STATE/USED/Sdryer2.jpg","0"
"","1431","html-button-response","201","2.0.0","2115893","pqryfxp01ad","seal","Nope","0","Which of these items did you see earlier?","","","","","test","","exemplar","true","stimuli/organized/EXEMPLAR/USED/Ecalculator2.jpg","stimuli/organized/EXEMPLAR/USED/Ecalculator1.jpg","0"
"","1248","html-button-response","202","2.0.0","2117143","pqryfxp01ad","seal","Nope","1","Which of these items did you see earlier?","","","","","test","","state","true","stimuli/organized/STATE/USED/Sbrushes2.jpg","stimuli/organized/STATE/USED/Sbrushes1.jpg","1"
"","1132","html-button-response","203","2.0.0","2118277","pqryfxp01ad","seal","Nope","1","Which of these items did you see earlier?","","","","","test","","state","true","stimuli/organized/STATE/USED/Sbelt2.jpg","stimuli/organized/STATE/USED/Sbelt1.jpg","1"
"","2015","html-button-response","204","2.0.0","2120294","pqryfxp01ad","seal","Nope","0","Which of these items did you see earlier?","","","","","test","","exemplar","true","stimuli/organized/EXEMPLAR/USED/Ecabinet2.jpg","stimuli/organized/EXEMPLAR/USED/Ecabinet1.jpg","0"
"","1248","html-button-response","205","2.0.0","2121544","pqryfxp01ad","seal","Nope","0","Which of these items did you see earlier?","","","","","test","","novel","true","stimuli/organized/Novel pairs (tested)/n05bcactus.jpg","stimuli/organized/Novel pairs (tested)/n05abarrel.jpg","0"
"","1048","html-button-response","206","2.0.0","2122594","pqryfxp01ad","seal","Nope","1","Which of these items did you see earlier?","","","","","test","","exemplar","true","stimuli/organized/EXEMPLAR/USED/Efeather2.jpg","stimuli/organized/EXEMPLAR/USED/Efeather1.jpg","1"
"","1981","html-button-response","207","2.0.0","2124576","pqryfxp01ad","seal","Nope","1","Which of these items did you see earlier?","","","","","test","","state","true","stimuli/organized/STATE/USED/Sscanner2.JPG","stimuli/organized/STATE/USED/Sscanner1.JPG","1"
"","1066","html-button-response","208","2.0.0","2125644","pqryfxp01ad","seal","Nope","1","Which of these items did you see earlier?","","","","","test","","state","true","stimuli/organized/STATE/USED/Slaptop1.JPG","stimuli/organized/STATE/USED/Slaptop2.JPG","1"
"","1414","html-button-response","209","2.0.0","2127060","pqryfxp01ad","seal","Nope","0","Which of these items did you see earlier?","","","","","test","","state","true","stimuli/organized/STATE/USED/Spie2.JPG","stimuli/organized/STATE/USED/Spie1.JPG","0"
"","931","html-button-response","210","2.0.0","2127993","pqryfxp01ad","seal","Nope","0","Which of these items did you see earlier?","","","","","test","","exemplar","true","stimuli/organized/EXEMPLAR/USED/Ebracelet2.jpg","stimuli/organized/EXEMPLAR/USED/Ebracelet1.jpg","0"
"","866","html-button-response","211","2.0.0","2128861","pqryfxp01ad","seal","Nope","0","Which of these items did you see earlier?","","","","","test","","exemplar","true","stimuli/organized/EXEMPLAR/USED/Ecar2.jpg","stimuli/organized/EXEMPLAR/USED/Ecar1.jpg","0"
"","1214","html-button-response","212","2.0.0","2130077","pqryfxp01ad","seal","Nope","0","Which of these items did you see earlier?","","","","","test","","state","true","stimuli/organized/STATE/USED/Sbabytoy2.JPG","stimuli/organized/STATE/USED/Sbabytoy1.JPG","0"
"","1649","html-button-response","213","2.0.0","2131727","pqryfxp01ad","seal","Nope","0","Which of these items did you see earlier?","","","","","test","","state","true","stimuli/organized/STATE/USED/Sflask1.jpg","stimuli/organized/STATE/USED/Sflask2.jpg","0"
"","1064","html-button-response","214","2.0.0","2132793","pqryfxp01ad","seal","Nope","1","Which of these items did you see earlier?","","","","","test","","novel","true","stimuli/organized/Novel pairs (tested)/n11abatteries.jpg","stimuli/organized/Novel pairs (tested)/n11bsock.jpg","1"
"","1181","html-button-response","215","2.0.0","2133976","pqryfxp01ad","seal","Nope","1","Which of these items did you see earlier?","","","","","test","","state","true","stimuli/organized/STATE/USED/Sbureau2.JPG","stimuli/organized/STATE/USED/Sbureau1.JPG","1"
"","782","html-button-response","216","2.0.0","2134760","pqryfxp01ad","seal","Nope","1","Which of these items did you see earlier?","","","","","test","","exemplar","true","stimuli/organized/EXEMPLAR/USED/Eglobe1.jpg","stimuli/organized/EXEMPLAR/USED/Eglobe2.jpg","1"
"","1549","html-button-response","217","2.0.0","2136311","pqryfxp01ad","seal","Nope","0","Which of these items did you see earlier?","","","","","test","","state","true","stimuli/organized/STATE/USED/Sdie2.jpg","stimuli/organized/STATE/USED/Sdie1.jpg","0"
"","1332","html-button-response","218","2.0.0","2137644","pqryfxp01ad","seal","Nope","0","Which of these items did you see earlier?","","","","","test","","novel","true","stimuli/organized/Novel pairs (tested)/n08bpaperclip.jpg","stimuli/organized/Novel pairs (tested)/n08aoven.jpg","0"
"","2397","html-button-response","219","2.0.0","2140043","pqryfxp01ad","seal","Nope","1","Which of these items did you see earlier?","","","","","test","","exemplar","true","stimuli/organized/EXEMPLAR/USED/Eframe1.jpg","stimuli/organized/EXEMPLAR/USED/Eframe2.jpg","1"
"","1066","html-button-response","220","2.0.0","2141110","pqryfxp01ad","seal","Nope","0","Which of these items did you see earlier?","","","","","test","","state","true","stimuli/organized/STATE/USED/Sabacus1.jpg","stimuli/organized/STATE/USED/Sabacus2.jpg","0"
"","4532","html-button-response","221","2.0.0","2145644","pqryfxp01ad","seal","Nope","0","Which of these items did you see earlier?","","","","","test","","state","true","stimuli/organized/STATE/USED/Seggs1.jpg","stimuli/organized/STATE/USED/Seggs2.jpg","0"
"","1131","html-button-response","222","2.0.0","2146777","pqryfxp01ad","seal","Nope","1","Which of these items did you see earlier?","","","","","test","","exemplar","true","stimuli/organized/EXEMPLAR/USED/Ebasket2.jpg","stimuli/organized/EXEMPLAR/USED/Ebasket1.jpg","1"
"","1781","html-button-response","223","2.0.0","2148560","pqryfxp01ad","seal","Nope","0","Which of these items did you see earlier?","","","","","test","","novel","true","stimuli/organized/Novel pairs (tested)/n18bsnail.jpg","stimuli/organized/Novel pairs (tested)/n18apretzel.jpg","0"
"","1599","html-button-response","224","2.0.0","2150160","pqryfxp01ad","seal","Nope","1","Which of these items did you see earlier?","","","","","test","","state","true","stimuli/organized/STATE/USED/Sbriefcase1.jpg","stimuli/organized/STATE/USED/Sbriefcase2.jpg","1"
"","1165","html-button-response","225","2.0.0","2151327","pqryfxp01ad","seal","Nope","1","Which of these items did you see earlier?","","","","","test","","novel","true","stimuli/organized/Novel pairs (tested)/n15bfootball.jpg","stimuli/organized/Novel pairs (tested)/n15aspiderweb.jpg","1"
"","998","html-button-response","226","2.0.0","2152327","pqryfxp01ad","seal","Nope","1","Which of these items did you see earlier?","","","","","test","","exemplar","true","stimuli/organized/EXEMPLAR/USED/Egoggles1.jpg","stimuli/organized/EXEMPLAR/USED/Egoggles2.jpg","1"
"","1630","html-button-response","227","2.0.0","2153959","pqryfxp01ad","seal","Nope","1","Which of these items did you see earlier?","","","","","test","","state","true","stimuli/organized/STATE/USED/Scrayons1.jpg","stimuli/organized/STATE/USED/Scrayons2.jpg","1"
"","1099","html-button-response","228","2.0.0","2155060","pqryfxp01ad","seal","Nope","0","Which of these items did you see earlier?","","","","","test","","exemplar","true","stimuli/organized/EXEMPLAR/USED/Ebread1.jpg","stimuli/organized/EXEMPLAR/USED/Ebread2.jpg","0"
"","1015","html-button-response","229","2.0.0","2156077","pqryfxp01ad","seal","Nope","0","Which of these items did you see earlier?","","","","","test","","exemplar","true","stimuli/organized/EXEMPLAR/USED/Efan2.jpg","stimuli/organized/EXEMPLAR/USED/Efan1.jpg","0"
"","1147","html-button-response","230","2.0.0","2157226","pqryfxp01ad","seal","Nope","1","Which of these items did you see earlier?","","","","","test","","novel","true","stimuli/organized/Novel pairs (tested)/n16bhammer.jpg","stimuli/organized/Novel pairs (tested)/n16abananas.jpg","1"
"","1565","html-button-response","231","2.0.0","2158793","pqryfxp01ad","seal","Nope","1","Which of these items did you see earlier?","","","","","test","","state","false","stimuli/organized/STATE/USED/Sbooks1.JPG","stimuli/organized/STATE/USED/Sbooks2.JPG","0"
"","2114","html-button-response","232","2.0.0","2160909","pqryfxp01ad","seal","Nope","0","Which of these items did you see earlier?","","","","","test","","state","false","stimuli/organized/STATE/USED/Sbox1.jpg","stimuli/organized/STATE/USED/Sbox2.jpg","1"
"","916","html-button-response","233","2.0.0","2161827","pqryfxp01ad","seal","Nope","1","Which of these items did you see earlier?","","","","","test","","novel","true","stimuli/organized/Novel pairs (tested)/n07apotato.jpg","stimuli/organized/Novel pairs (tested)/n07bswimmingpool.jpg","1"
"","881","html-button-response","234","2.0.0","2162710","pqryfxp01ad","seal","Nope","0","Which of these items did you see earlier?","","","","","test","","novel","true","stimuli/organized/Novel pairs (tested)/n09apenguin.jpg","stimuli/organized/Novel pairs (tested)/n09bsaddle.jpg","0"
"","798","html-button-response","235","2.0.0","2163509","pqryfxp01ad","seal","Nope","1","Which of these items did you see earlier?","","","","","test","","novel","true","stimuli/organized/Novel pairs (tested)/n03acamel.jpg","stimuli/organized/Novel pairs (tested)/n03bbagel.jpg","1"
"","2349","html-button-response","236","2.0.0","2165860","pqryfxp01ad","seal","Nope","0","Which of these items did you see earlier?","","","","","test","","exemplar","true","stimuli/organized/EXEMPLAR/USED/Egrapes1.jpg","stimuli/organized/EXEMPLAR/USED/Egrapes2.jpg","0"
"","947","html-button-response","237","2.0.0","2166809","pqryfxp01ad","seal","Nope","0","Which of these items did you see earlier?","","","","","test","","novel","true","stimuli/organized/Novel pairs (tested)/n02bsafetypin.jpg","stimuli/organized/Novel pairs (tested)/n02aaxe.jpg","0"
"","2515","html-button-response","238","2.0.0","2169326","pqryfxp01ad","seal","Nope","1","Which of these items did you see earlier?","","","","","test","","state","true","stimuli/organized/STATE/USED/Sgiftbox1.jpg","stimuli/organized/STATE/USED/Sgiftbox2.jpg","1"
"","2132","html-button-response","239","2.0.0","2171460","pqryfxp01ad","seal","Nope","0","Which of these items did you see earlier?","","","","","test","","state","true","stimuli/organized/STATE/USED/Spotpan2.JPG","stimuli/organized/STATE/USED/Spotpan1.JPG","0"
"","1682","html-button-response","240","2.0.0","2173144","pqryfxp01ad","seal","Nope","0","Which of these items did you see earlier?","","","","","test","","exemplar","false","stimuli/organized/EXEMPLAR/USED/Ecamera1.jpg","stimuli/organized/EXEMPLAR/USED/Ecamera2.jpg","1"
"","15032","html-button-response","241","2.0.0","2188198","pqryfxp01ad","seal","Nope","1","Which of these items did you see earlier?","","","","","test","","exemplar","true","stimuli/organized/EXEMPLAR/USED/Echocolatebar1.jpg","stimuli/organized/EXEMPLAR/USED/Echocolatebar2.jpg","1"
"","915","html-button-response","242","2.0.0","2189116","pqryfxp01ad","seal","Nope","1","Which of these items did you see earlier?","","","","","test","","state","true","stimuli/organized/STATE/USED/Sdresser2.jpg","stimuli/organized/STATE/USED/Sdresser1.jpg","1"
"","1231","html-button-response","243","2.0.0","2190349","pqryfxp01ad","seal","Nope","0","Which of these items did you see earlier?","","","","","test","","exemplar","true","stimuli/organized/EXEMPLAR/USED/Edispenser1.jpg","stimuli/organized/EXEMPLAR/USED/Edispenser2.jpg","0"
"","7718","survey-html-form","244","2.0.0","2198076","pqryfxp01ad","seal","Nope","{""age"":""20"",""gender"":""female"",""memory_experiment_experience"":""no""}","","","","","","","","","","","",""
"","14365","survey-text","245","2.0.0","2212449","pqryfxp01ad","seal","Nope","{""task_guess"":""Memory of objects""}","","","","","","","","","","","",""
"","4228","survey-text","246","2.0.0","2216681","pqryfxp01ad","seal","Nope","{""technical_issues_question"":""Nope""}","","","","","","","","","","","",""
