"success","rt","trial_type","trial_index","plugin_version","time_elapsed","random_id","participant","technical_issues","response","stimulus","timeout","failed_images","failed_audio","failed_video","trial_phase","is_repeat","test_type","correct","old_image","new_image","correct_position"
"true","1518","fullscreen","0","null","2523","pqzd1dx58d0","alpaca","no","","","","","","","","","","","","",""
"","2887","survey-text","1","2.0.0","5415","pqzd1dx58d0","alpaca","no","{""participant_id"":""alpaca""}","","","","","","","","","","","",""
"","4291","html-keyboard-response","2","2.0.0","9710","pqzd1dx58d0","alpaca","no"," ","
      <p>In this experiment, a series of objects will be displayed.</p>
      <p>Try to memorize as much as possible about the objects.</p>
      <p>If the image is a <strong> repeat</strong>, press the SPACEBAR.</p>
      <p>Press any key to begin.</p>
    ","","","","","","","","","","",""
"true","","preload","3","2.0.0","10088","pqzd1dx58d0","alpaca","no","","","false","[]","[]","[]","","","","","","",""
"","null","html-keyboard-response","4","2.0.0","11091","pqzd1dx58d0","alpaca","no","null","<div style=""font-size:60px;"">+</div>","","","","","","","","","","",""
"","null","image-keyboard-response","5","2.0.0","14098","pqzd1dx58d0","alpaca","no","null","stimuli/organized/STATE/USED/Sgiftbag1.jpg","","","","","memory","false","state","true","","",""
"","null","html-keyboard-response","6","2.0.0","15101","pqzd1dx58d0","alpaca","no","null","<div style=""font-size:60px; color:black;"">+</div>","","","","","","","","","","",""
"","null","image-keyboard-response","7","2.0.0","18106","pqzd1dx58d0","alpaca","no","null","stimuli/organized/EXEMPLAR/USED/Egame2.jpg","","","","","memory","false","exemplar","true","","",""
"","null","html-keyboard-response","8","2.0.0","19109","pqzd1dx58d0","alpaca","no","null","<div style=""font-size:60px; color:black;"">+</div>","","","","","","","","","","",""
"","null","image-keyboard-response","9","2.0.0","22113","pqzd1dx58d0","alpaca","no","null","stimuli/organized/STATE/USED/Sbriefcase2.jpg","","","","","memory","false","state","true","","",""
"","null","html-keyboard-response","10","2.0.0","23115","pqzd1dx58d0","alpaca","no","null","<div style=""font-size:60px; color:black;"">+</div>","","","","","","","","","","",""
"","null","image-keyboard-response","11","2.0.0","26119","pqzd1dx58d0","alpaca","no","null","stimuli/organized/STATE/USED/Sdie1.jpg","","","","","memory","false","state","true","","",""
"","null","html-keyboard-response","12","2.0.0","27123","pqzd1dx58d0","alpaca","no","null","<div style=""font-size:60px; color:black;"">+</div>","","","","","","","","","","",""
"","null","image-keyboard-response","13","2.0.0","30127","pqzd1dx58d0","alpaca","no","null","stimuli/organized/STATE/USED/Sgiftbox2.jpg","","","","","memory","false","state","true","","",""
"","null","html-keyboard-response","14","2.0.0","31130","pqzd1dx58d0","alpaca","no","null","<div style=""font-size:60px; color:black;"">+</div>","","","","","","","","","","",""
"","null","image-keyboard-response","15","2.0.0","34134","pqzd1dx58d0","alpaca","no","null","stimuli/organized/Novel pairs (tested)/n20acarseat.jpg","","","","","memory","false","novel","true","","",""
"","null","html-keyboard-response","16","2.0.0","35137","pqzd1dx58d0","alpaca","no","null","<div style=""font-size:60px; color:black;"">+</div>","","","","","","","","","","",""
"","null","image-keyboard-response","17","2.0.0","38140","pqzd1dx58d0","alpaca","no","null","stimuli/organized/STATE/USED/Sjuiceglass1.JPG","","","","","memory","false","state","true","","",""
"","null","html-keyboard-response","18","2.0.0","39143","pqzd1dx58d0","alpaca","no","null","<div style=""font-size:60px; color:black;"">+</div>","","","","","","","","","","",""
"","null","image-keyboard-response","19","2.0.0","42147","pqzd1dx58d0","alpaca","no","null","stimuli/organized/EXEMPLAR/USED/Eframe2.jpg","","","","","memory","false","exemplar","true","","",""
"","null","html-keyboard-response","20","2.0.0","43150","pqzd1dx58d0","alpaca","no","null","<div style=""font-size:60px; color:black;"">+</div>","","","","","","","","","","",""
"","null","image-keyboard-response","21","2.0.0","46155","pqzd1dx58d0","alpaca","no","null","stimuli/organized/STATE/USED/Schinesefoodbox2.jpg","","","","","memory","false","state","true","","",""
"","null","html-keyboard-response","22","2.0.0","47157","pqzd1dx58d0","alpaca","no","null","<div style=""font-size:60px; color:black;"">+</div>","","","","","","","","","","",""
"","null","image-keyboard-response","23","2.0.0","50161","pqzd1dx58d0","alpaca","no","null","stimuli/organized/STATE/USED/Slaptop2.JPG","","","","","memory","false","state","true","","",""
"","null","html-keyboard-response","24","2.0.0","51164","pqzd1dx58d0","alpaca","no","null","<div style=""font-size:60px; color:black;"">+</div>","","","","","","","","","","",""
"","null","image-keyboard-response","25","2.0.0","54168","pqzd1dx58d0","alpaca","no","null","stimuli/organized/STATE/USED/Sgrinder1.jpg","","","","","memory","false","state","true","","",""
"","null","html-keyboard-response","26","2.0.0","55169","pqzd1dx58d0","alpaca","no","null","<div style=""font-size:60px; color:black;"">+</div>","","","","","","","","","","",""
"","null","image-keyboard-response","27","2.0.0","58172","pqzd1dx58d0","alpaca","no","null","stimuli/organized/STATE/USED/Sfiretrucktoy2.jpg","","","","","memory","false","state","true","","",""
"","null","html-keyboard-response","28","2.0.0","59176","pqzd1dx58d0","alpaca","no","null","<div style=""font-size:60px; color:black;"">+</div>","","","","","","","","","","",""
"","null","image-keyboard-response","29","2.0.0","62179","pqzd1dx58d0","alpaca","no","null","stimuli/organized/EXEMPLAR/USED/Ecar1.jpg","","","","","memory","false","exemplar","true","","",""
"","null","html-keyboard-response","30","2.0.0","63182","pqzd1dx58d0","alpaca","no","null","<div style=""font-size:60px; color:black;"">+</div>","","","","","","","","","","",""
"","null","image-keyboard-response","31","2.0.0","66186","pqzd1dx58d0","alpaca","no","null","stimuli/organized/STATE/USED/Sbox1.jpg","","","","","memory","false","state","true","","",""
"","null","html-keyboard-response","32","2.0.0","67190","pqzd1dx58d0","alpaca","no","null","<div style=""font-size:60px; color:black;"">+</div>","","","","","","","","","","",""
"","null","image-keyboard-response","33","2.0.0","70195","pqzd1dx58d0","alpaca","no","null","stimuli/organized/Novel pairs (tested)/n05abarrel.jpg","","","","","memory","false","novel","true","","",""
"","null","html-keyboard-response","34","2.0.0","71198","pqzd1dx58d0","alpaca","no","null","<div style=""font-size:60px; color:black;"">+</div>","","","","","","","","","","",""
"","null","image-keyboard-response","35","2.0.0","74202","pqzd1dx58d0","alpaca","no","null","stimuli/organized/EXEMPLAR/USED/Edispenser1.jpg","","","","","memory","false","exemplar","true","","",""
"","null","html-keyboard-response","36","2.0.0","75205","pqzd1dx58d0","alpaca","no","null","<div style=""font-size:60px; color:black;"">+</div>","","","","","","","","","","",""
"","null","image-keyboard-response","37","2.0.0","78209","pqzd1dx58d0","alpaca","no","null","stimuli/organized/Novel pairs (tested)/n02aaxe.jpg","","","","","memory","false","novel","true","","",""
"","null","html-keyboard-response","38","2.0.0","79212","pqzd1dx58d0","alpaca","no","null","<div style=""font-size:60px; color:black;"">+</div>","","","","","","","","","","",""
"","null","image-keyboard-response","39","2.0.0","82215","pqzd1dx58d0","alpaca","no","null","stimuli/organized/EXEMPLAR/USED/Efan2.jpg","","","","","memory","false","exemplar","true","","",""
"","null","html-keyboard-response","40","2.0.0","83218","pqzd1dx58d0","alpaca","no","null","<div style=""font-size:60px; color:black;"">+</div>","","","","","","","","","","",""
"","null","image-keyboard-response","41","2.0.0","86221","pqzd1dx58d0","alpaca","no","null","stimuli/organized/Novel pairs (tested)/n06blipstick.jpg","","","","","memory","false","novel","true","","",""
"","null","html-keyboard-response","42","2.0.0","87224","pqzd1dx58d0","alpaca","no","null","<div style=""font-size:60px; color:black;"">+</div>","","","","","","","","","","",""
"","null","image-keyboard-response","43","2.0.0","90227","pqzd1dx58d0","alpaca","no","null","stimuli/organized/STATE/USED/Sbrushes1.jpg","","","","","memory","false","state","true","","",""
"","null","html-keyboard-response","44","2.0.0","91231","pqzd1dx58d0","alpaca","no","null","<div style=""font-size:60px; color:black;"">+</div>","","","","","","","","","","",""
"","null","image-keyboard-response","45","2.0.0","94235","pqzd1dx58d0","alpaca","no","null","stimuli/organized/STATE/USED/Sbreadbox2.JPG","","","","","memory","false","state","true","","",""
"","null","html-keyboard-response","46","2.0.0","95238","pqzd1dx58d0","alpaca","no","null","<div style=""font-size:60px; color:black;"">+</div>","","","","","","","","","","",""
"","null","image-keyboard-response","47","2.0.0","98242","pqzd1dx58d0","alpaca","no","null","stimuli/organized/EXEMPLAR/USED/Eglobe1.jpg","","","","","memory","false","exemplar","true","","",""
"","null","html-keyboard-response","48","2.0.0","99244","pqzd1dx58d0","alpaca","no","null","<div style=""font-size:60px; color:black;"">+</div>","","","","","","","","","","",""
"","null","image-keyboard-response","49","2.0.0","102248","pqzd1dx58d0","alpaca","no","null","stimuli/organized/Novel pairs (tested)/n08bpaperclip.jpg","","","","","memory","false","novel","true","","",""
"","null","html-keyboard-response","50","2.0.0","103251","pqzd1dx58d0","alpaca","no","null","<div style=""font-size:60px; color:black;"">+</div>","","","","","","","","","","",""
"","null","image-keyboard-response","51","2.0.0","106254","pqzd1dx58d0","alpaca","no","null","stimuli/organized/Novel pairs (tested)/n01aladybug.jpg","","","","","memory","false","novel","true","","",""
"","null","html-keyboard-response","52","2.0.0","107257","pqzd1dx58d0","alpaca","no","null","<div style=""font-size:60px; color:black;"">+</div>","","","","","","","","","","",""
"","null","image-keyboard-response","53","2.0.0","110260","pqzd1dx58d0","alpaca","no","null","stimuli/organized/STATE/USED/Sdonut1.jpg","","","","","memory","false","state","true","","",""
"","null","html-keyboard-response","54","2.0.0","111263","pqzd1dx58d0","alpaca","no","null","<div style=""font-size:60px; color:black;"">+</div>","","","","","","","","","","",""
"","null","image-keyboard-response","55","2.0.0","114267","pqzd1dx58d0","alpaca","no","null","stimuli/organized/STATE/USED/Sbelt2.jpg","","","","","memory","false","state","true","","",""
"","null","html-keyboard-response","56","2.0.0","115269","pqzd1dx58d0","alpaca","no","null","<div style=""font-size:60px; color:black;"">+</div>","","","","","","","","","","",""
"","null","image-keyboard-response","57","2.0.0","118273","pqzd1dx58d0","alpaca","no","null","stimuli/organized/Novel pairs (tested)/n16bhammer.jpg","","","","","memory","false","novel","true","","",""
"","null","html-keyboard-response","58","2.0.0","119276","pqzd1dx58d0","alpaca","no","null","<div style=""font-size:60px; color:black;"">+</div>","","","","","","","","","","",""
"","null","image-keyboard-response","59","2.0.0","122280","pqzd1dx58d0","alpaca","no","null","stimuli/organized/EXEMPLAR/USED/Echisel2.jpg","","","","","memory","false","exemplar","true","","",""
"","null","html-keyboard-response","60","2.0.0","123283","pqzd1dx58d0","alpaca","no","null","<div style=""font-size:60px; color:black;"">+</div>","","","","","","","","","","",""
"","null","image-keyboard-response","61","2.0.0","126287","pqzd1dx58d0","alpaca","no","null","stimuli/organized/STATE/USED/Sdresser1.jpg","","","","","memory","false","state","true","","",""
"","null","html-keyboard-response","62","2.0.0","127290","pqzd1dx58d0","alpaca","no","null","<div style=""font-size:60px; color:black;"">+</div>","","","","","","","","","","",""
"","null","image-keyboard-response","63","2.0.0","130295","pqzd1dx58d0","alpaca","no","null","stimuli/organized/Novel pairs (tested)/n15bfootball.jpg","","","","","memory","false","novel","true","","",""
"","null","html-keyboard-response","64","2.0.0","131298","pqzd1dx58d0","alpaca","no","null","<div style=""font-size:60px; color:black;"">+</div>","","","","","","","","","","",""
"","null","image-keyboard-response","65","2.0.0","134302","pqzd1dx58d0","alpaca","no","null","stimuli/organized/STATE/USED/Sabacus2.jpg","","","","","memory","false","state","true","","",""
"","null","html-keyboard-response","66","2.0.0","135304","pqzd1dx58d0","alpaca","no","null","<div style=""font-size:60px; color:black;"">+</div>","","","","","","","","","","",""
"","1395","image-keyboard-response","67","2.0.0","138308","pqzd1dx58d0","alpaca","no"," ","stimuli/organized/STATE/USED/Sgrinder1.jpg","","","","","memory","true","state","true","","",""
"","null","html-keyboard-response","68","2.0.0","139311","pqzd1dx58d0","alpaca","no","null","<div style=""font-size:60px; color:green;"">+</div>","","","","","","","","","","",""
"","null","image-keyboard-response","69","2.0.0","142315","pqzd1dx58d0","alpaca","no","null","stimuli/organized/EXEMPLAR/USED/Ebasket2.jpg","","","","","memory","false","exemplar","true","","",""
"","null","html-keyboard-response","70","2.0.0","143318","pqzd1dx58d0","alpaca","no","null","<div style=""font-size:60px; color:black;"">+</div>","","","","","","","","","","",""
"","2121","image-keyboard-response","71","2.0.0","146322","pqzd1dx58d0","alpaca","no"," ","stimuli/organized/EXEMPLAR/USED/Ecamera1.jpg","","","","","memory","false","exemplar","false","","",""
"","null","html-keyboard-response","72","2.0.0","147324","pqzd1dx58d0","alpaca","no","null","<div style=""font-size:60px; color:red;"">+</div>","","","","","","","","","","",""
"","null","image-keyboard-response","73","2.0.0","150327","pqzd1dx58d0","alpaca","no","null","stimuli/organized/STATE/USED/Scrayons1.jpg","","","","","memory","false","state","true","","",""
"","null","html-keyboard-response","74","2.0.0","151330","pqzd1dx58d0","alpaca","no","null","<div style=""font-size:60px; color:black;"">+</div>","","","","","","","","","","",""
"","null","image-keyboard-response","75","2.0.0","154334","pqzd1dx58d0","alpaca","no","null","stimuli/organized/Novel pairs (tested)/n12bwatch.jpg","","","","","memory","false","novel","true","","",""
"","null","html-keyboard-response","76","2.0.0","155336","pqzd1dx58d0","alpaca","no","null","<div style=""font-size:60px; color:black;"">+</div>","","","","","","","","","","",""
"","null","image-keyboard-response","77","2.0.0","158340","pqzd1dx58d0","alpaca","no","null","stimuli/organized/Novel pairs (tested)/n03bbagel.jpg","","","","","memory","false","novel","true","","",""
"","null","html-keyboard-response","78","2.0.0","159343","pqzd1dx58d0","alpaca","no","null","<div style=""font-size:60px; color:black;"">+</div>","","","","","","","","","","",""
"","null","image-keyboard-response","79","2.0.0","162347","pqzd1dx58d0","alpaca","no","null","stimuli/organized/STATE/USED/Sbooks2.JPG","","","","","memory","false","state","true","","",""
"","null","html-keyboard-response","80","2.0.0","163352","pqzd1dx58d0","alpaca","no","null","<div style=""font-size:60px; color:black;"">+</div>","","","","","","","","","","",""
"","null","image-keyboard-response","81","2.0.0","166356","pqzd1dx58d0","alpaca","no","null","stimuli/organized/EXEMPLAR/USED/Ebracelet1.jpg","","","","","memory","false","exemplar","true","","",""
"","null","html-keyboard-response","82","2.0.0","167359","pqzd1dx58d0","alpaca","no","null","<div style=""font-size:60px; color:black;"">+</div>","","","","","","","","","","",""
"","null","image-keyboard-response","83","2.0.0","170361","pqzd1dx58d0","alpaca","no","null","stimuli/organized/Novel pairs (tested)/n07bswimmingpool.jpg","","","","","memory","false","novel","true","","",""
"","null","html-keyboard-response","84","2.0.0","171364","pqzd1dx58d0","alpaca","no","null","<div style=""font-size:60px; color:black;"">+</div>","","","","","","","","","","",""
"","null","image-keyboard-response","85","2.0.0","174368","pqzd1dx58d0","alpaca","no","null","stimuli/organized/EXEMPLAR/USED/Ecalculator1.jpg","","","","","memory","false","exemplar","true","","",""
"","null","html-keyboard-response","86","2.0.0","175371","pqzd1dx58d0","alpaca","no","null","<div style=""font-size:60px; color:black;"">+</div>","","","","","","","","","","",""
"","null","image-keyboard-response","87","2.0.0","178375","pqzd1dx58d0","alpaca","no","null","stimuli/organized/STATE/USED/Scoffeemaker1.JPG","","","","","memory","false","state","true","","",""
"","null","html-keyboard-response","88","2.0.0","179377","pqzd1dx58d0","alpaca","no","null","<div style=""font-size:60px; color:black;"">+</div>","","","","","","","","","","",""
"","null","image-keyboard-response","89","2.0.0","182381","pqzd1dx58d0","alpaca","no","null","stimuli/organized/STATE/USED/Sscissors1.JPG","","","","","memory","false","state","true","","",""
"","null","html-keyboard-response","90","2.0.0","183384","pqzd1dx58d0","alpaca","no","null","<div style=""font-size:60px; color:black;"">+</div>","","","","","","","","","","",""
"","null","image-keyboard-response","91","2.0.0","186388","pqzd1dx58d0","alpaca","no","null","stimuli/organized/EXEMPLAR/USED/Ebread1.jpg","","","","","memory","false","exemplar","true","","",""
"","null","html-keyboard-response","92","2.0.0","187391","pqzd1dx58d0","alpaca","no","null","<div style=""font-size:60px; color:black;"">+</div>","","","","","","","","","","",""
"","null","image-keyboard-response","93","2.0.0","190395","pqzd1dx58d0","alpaca","no","null","stimuli/organized/EXEMPLAR/USED/Ebicycle1.jpg","","","","","memory","false","exemplar","true","","",""
"","null","html-keyboard-response","94","2.0.0","191397","pqzd1dx58d0","alpaca","no","null","<div style=""font-size:60px; color:black;"">+</div>","","","","","","","","","","",""
"","null","image-keyboard-response","95","2.0.0","194401","pqzd1dx58d0","alpaca","no","null","stimuli/organized/Novel pairs (tested)/n11bsock.jpg","","","","","memory","false","novel","true","","",""
"","null","html-keyboard-response","96","2.0.0","195404","pqzd1dx58d0","alpaca","no","null","<div style=""font-size:60px; color:black;"">+</div>","","","","","","","","","","",""
"","null","image-keyboard-response","97","2.0.0","198407","pqzd1dx58d0","alpaca","no","null","stimuli/organized/STATE/USED/Sdryer1.jpg","","","","","memory","false","state","true","","",""
"","null","html-keyboard-response","98","2.0.0","199410","pqzd1dx58d0","alpaca","no","null","<div style=""font-size:60px; color:black;"">+</div>","","","","","","","","","","",""
"","null","image-keyboard-response","99","2.0.0","202414","pqzd1dx58d0","alpaca","no","null","stimuli/organized/STATE/USED/Scookies1.JPG","","","","","memory","false","state","true","","",""
"","null","html-keyboard-response","100","2.0.0","203417","pqzd1dx58d0","alpaca","no","null","<div style=""font-size:60px; color:black;"">+</div>","","","","","","","","","","",""
"","null","image-keyboard-response","101","2.0.0","206420","pqzd1dx58d0","alpaca","no","null","stimuli/organized/STATE/USED/Sbottles2.JPG","","","","","memory","false","state","true","","",""
"","null","html-keyboard-response","102","2.0.0","207423","pqzd1dx58d0","alpaca","no","null","<div style=""font-size:60px; color:black;"">+</div>","","","","","","","","","","",""
"","null","image-keyboard-response","103","2.0.0","210426","pqzd1dx58d0","alpaca","no","null","stimuli/organized/Novel pairs (tested)/n19apickle.jpg","","","","","memory","false","novel","true","","",""
"","null","html-keyboard-response","104","2.0.0","211429","pqzd1dx58d0","alpaca","no","null","<div style=""font-size:60px; color:black;"">+</div>","","","","","","","","","","",""
"","null","image-keyboard-response","105","2.0.0","214432","pqzd1dx58d0","alpaca","no","null","stimuli/organized/STATE/USED/Seggs2.jpg","","","","","memory","false","state","true","","",""
"","null","html-keyboard-response","106","2.0.0","215435","pqzd1dx58d0","alpaca","no","null","<div style=""font-size:60px; color:black;"">+</div>","","","","","","","","","","",""
"","null","image-keyboard-response","107","2.0.0","218439","pqzd1dx58d0","alpaca","no","null","stimuli/organized/STATE/USED/Sscanner1.JPG","","","","","memory","false","state","true","","",""
"","null","html-keyboard-response","108","2.0.0","219442","pqzd1dx58d0","alpaca","no","null","<div style=""font-size:60px; color:black;"">+</div>","","","","","","","","","","",""
"","null","image-keyboard-response","109","2.0.0","222446","pqzd1dx58d0","alpaca","no","null","stimuli/organized/EXEMPLAR/USED/Ecabinet2.jpg","","","","","memory","false","exemplar","true","","",""
"","null","html-keyboard-response","110","2.0.0","223448","pqzd1dx58d0","alpaca","no","null","<div style=""font-size:60px; color:black;"">+</div>","","","","","","","","","","",""
"","null","image-keyboard-response","111","2.0.0","226452","pqzd1dx58d0","alpaca","no","null","stimuli/organized/EXEMPLAR/USED/Efeather1.jpg","","","","","memory","false","exemplar","true","","",""
"","null","html-keyboard-response","112","2.0.0","227455","pqzd1dx58d0","alpaca","no","null","<div style=""font-size:60px; color:black;"">+</div>","","","","","","","","","","",""
"","null","image-keyboard-response","113","2.0.0","230458","pqzd1dx58d0","alpaca","no","null","stimuli/organized/STATE/USED/Shairbrush2.jpg","","","","","memory","false","state","true","","",""
"","null","html-keyboard-response","114","2.0.0","231461","pqzd1dx58d0","alpaca","no","null","<div style=""font-size:60px; color:black;"">+</div>","","","","","","","","","","",""
"","null","image-keyboard-response","115","2.0.0","234465","pqzd1dx58d0","alpaca","no","null","stimuli/organized/STATE/USED/Scontainer1.JPG","","","","","memory","false","state","true","","",""
"","null","html-keyboard-response","116","2.0.0","235467","pqzd1dx58d0","alpaca","no","null","<div style=""font-size:60px; color:black;"">+</div>","","","","","","","","","","",""
"","1330","image-keyboard-response","117","2.0.0","238470","pqzd1dx58d0","alpaca","no"," ","stimuli/organized/STATE/USED/Sbureau1.JPG","","","","","memory","false","state","false","","",""
"","null","html-keyboard-response","118","2.0.0","239473","pqzd1dx58d0","alpaca","no","null","<div style=""font-size:60px; color:red;"">+</div>","","","","","","","","","","",""
"","null","image-keyboard-response","119","2.0.0","242477","pqzd1dx58d0","alpaca","no","null","stimuli/organized/STATE/USED/Sphone2.JPG","","","","","memory","false","state","true","","",""
"","null","html-keyboard-response","120","2.0.0","243479","pqzd1dx58d0","alpaca","no","null","<div style=""font-size:60px; color:black;"">+</div>","","","","","","","","","","",""
"","null","image-keyboard-response","121","2.0.0","246483","pqzd1dx58d0","alpaca","no","null","stimuli/organized/Novel pairs (tested)/n10bturkey.jpg","","","","","memory","false","novel","true","","",""
"","null","html-keyboard-response","122","2.0.0","247486","pqzd1dx58d0","alpaca","no","null","<div style=""font-size:60px; color:black;"">+</div>","","","","","","","","","","",""
"","null","image-keyboard-response","123","2.0.0","250490","pqzd1dx58d0","alpaca","no","null","stimuli/organized/STATE/USED/Sbabytoy2.JPG","","","","","memory","false","state","true","","",""
"","null","html-keyboard-response","124","2.0.0","251493","pqzd1dx58d0","alpaca","no","null","<div style=""font-size:60px; color:black;"">+</div>","","","","","","","","","","",""
"","null","image-keyboard-response","125","2.0.0","254496","pqzd1dx58d0","alpaca","no","null","stimuli/organized/EXEMPLAR/USED/Egoggles1.jpg","","","","","memory","false","exemplar","true","","",""
"","null","html-keyboard-response","126","2.0.0","255498","pqzd1dx58d0","alpaca","no","null","<div style=""font-size:60px; color:black;"">+</div>","","","","","","","","","","",""
"","null","image-keyboard-response","127","2.0.0","258502","pqzd1dx58d0","alpaca","no","null","stimuli/organized/Novel pairs (tested)/n09apenguin.jpg","","","","","memory","false","novel","true","","",""
"","null","html-keyboard-response","128","2.0.0","259504","pqzd1dx58d0","alpaca","no","null","<div style=""font-size:60px; color:black;"">+</div>","","","","","","","","","","",""
"","null","image-keyboard-response","129","2.0.0","262508","pqzd1dx58d0","alpaca","no","null","stimuli/organized/EXEMPLAR/USED/Econe1.jpg","","","","","memory","false","exemplar","true","","",""
"","null","html-keyboard-response","130","2.0.0","263510","pqzd1dx58d0","alpaca","no","null","<div style=""font-size:60px; color:black;"">+</div>","","","","","","","","","","",""
"","null","image-keyboard-response","131","2.0.0","266514","pqzd1dx58d0","alpaca","no","null","stimuli/organized/EXEMPLAR/USED/Ebell2.jpg","","","","","memory","false","exemplar","true","","",""
"","null","html-keyboard-response","132","2.0.0","267517","pqzd1dx58d0","alpaca","no","null","<div style=""font-size:60px; color:black;"">+</div>","","","","","","","","","","",""
"","null","image-keyboard-response","133","2.0.0","270521","pqzd1dx58d0","alpaca","no","null","stimuli/organized/STATE/USED/Spie1.JPG","","","","","memory","false","state","true","","",""
"","null","html-keyboard-response","134","2.0.0","271523","pqzd1dx58d0","alpaca","no","null","<div style=""font-size:60px; color:black;"">+</div>","","","","","","","","","","",""
"","null","image-keyboard-response","135","2.0.0","274527","pqzd1dx58d0","alpaca","no","null","stimuli/organized/STATE/USED/Sdishes2.JPG","","","","","memory","false","state","true","","",""
"","null","html-keyboard-response","136","2.0.0","275530","pqzd1dx58d0","alpaca","no","null","<div style=""font-size:60px; color:black;"">+</div>","","","","","","","","","","",""
"","null","image-keyboard-response","137","2.0.0","278534","pqzd1dx58d0","alpaca","no","null","stimuli/organized/STATE/USED/Sapplesgreenbasket2.jpg","","","","","memory","false","state","true","","",""
"","null","html-keyboard-response","138","2.0.0","279537","pqzd1dx58d0","alpaca","no","null","<div style=""font-size:60px; color:black;"">+</div>","","","","","","","","","","",""
"","null","image-keyboard-response","139","2.0.0","282541","pqzd1dx58d0","alpaca","no","null","stimuli/organized/Novel pairs (tested)/n14acigarette.jpg","","","","","memory","false","novel","true","","",""
"","null","html-keyboard-response","140","2.0.0","283543","pqzd1dx58d0","alpaca","no","null","<div style=""font-size:60px; color:black;"">+</div>","","","","","","","","","","",""
"","null","image-keyboard-response","141","2.0.0","286547","pqzd1dx58d0","alpaca","no","null","stimuli/organized/Novel pairs (tested)/n18bsnail.jpg","","","","","memory","false","novel","true","","",""
"","null","html-keyboard-response","142","2.0.0","287549","pqzd1dx58d0","alpaca","no","null","<div style=""font-size:60px; color:black;"">+</div>","","","","","","","","","","",""
"","null","image-keyboard-response","143","2.0.0","290552","pqzd1dx58d0","alpaca","no","null","stimuli/organized/Novel pairs (tested)/n13bdustpan.jpg","","","","","memory","false","novel","true","","",""
"","null","html-keyboard-response","144","2.0.0","291555","pqzd1dx58d0","alpaca","no","null","<div style=""font-size:60px; color:black;"">+</div>","","","","","","","","","","",""
"","null","image-keyboard-response","145","2.0.0","294558","pqzd1dx58d0","alpaca","no","null","stimuli/organized/STATE/USED/Spotpan2.JPG","","","","","memory","false","state","true","","",""
"","null","html-keyboard-response","146","2.0.0","295562","pqzd1dx58d0","alpaca","no","null","<div style=""font-size:60px; color:black;"">+</div>","","","","","","","","","","",""
"","null","image-keyboard-response","147","2.0.0","298565","pqzd1dx58d0","alpaca","no","null","stimuli/organized/EXEMPLAR/USED/Echocolatebar1.jpg","","","","","memory","false","exemplar","true","","",""
"","null","html-keyboard-response","148","2.0.0","299567","pqzd1dx58d0","alpaca","no","null","<div style=""font-size:60px; color:black;"">+</div>","","","","","","","","","","",""
"","1583","image-keyboard-response","149","2.0.0","302571","pqzd1dx58d0","alpaca","no"," ","stimuli/organized/STATE/USED/Shairbrush2.jpg","","","","","memory","true","state","true","","",""
"","null","html-keyboard-response","150","2.0.0","303574","pqzd1dx58d0","alpaca","no","null","<div style=""font-size:60px; color:green;"">+</div>","","","","","","","","","","",""
"","890","image-keyboard-response","151","2.0.0","306577","pqzd1dx58d0","alpaca","no"," ","stimuli/organized/STATE/USED/Scookies1.JPG","","","","","memory","true","state","true","","",""
"","null","html-keyboard-response","152","2.0.0","307579","pqzd1dx58d0","alpaca","no","null","<div style=""font-size:60px; color:green;"">+</div>","","","","","","","","","","",""
"","null","image-keyboard-response","153","2.0.0","310583","pqzd1dx58d0","alpaca","no","null","stimuli/organized/STATE/USED/Sflask1.jpg","","","","","memory","false","state","true","","",""
"","null","html-keyboard-response","154","2.0.0","311586","pqzd1dx58d0","alpaca","no","null","<div style=""font-size:60px; color:black;"">+</div>","","","","","","","","","","",""
"","1056","image-keyboard-response","155","2.0.0","314589","pqzd1dx58d0","alpaca","no"," ","stimuli/organized/EXEMPLAR/USED/Efeather1.jpg","","","","","memory","true","exemplar","true","","",""
"","null","html-keyboard-response","156","2.0.0","315592","pqzd1dx58d0","alpaca","no","null","<div style=""font-size:60px; color:green;"">+</div>","","","","","","","","","","",""
"","680","image-keyboard-response","157","2.0.0","318595","pqzd1dx58d0","alpaca","no"," ","stimuli/organized/EXEMPLAR/USED/Ebell2.jpg","","","","","memory","true","exemplar","true","","",""
"","null","html-keyboard-response","158","2.0.0","319598","pqzd1dx58d0","alpaca","no","null","<div style=""font-size:60px; color:green;"">+</div>","","","","","","","","","","",""
"","null","image-keyboard-response","159","2.0.0","322602","pqzd1dx58d0","alpaca","no","null","stimuli/organized/Novel pairs (tested)/n04bbandaid.jpg","","","","","memory","false","novel","true","","",""
"","null","html-keyboard-response","160","2.0.0","323605","pqzd1dx58d0","alpaca","no","null","<div style=""font-size:60px; color:black;"">+</div>","","","","","","","","","","",""
"","null","image-keyboard-response","161","2.0.0","326608","pqzd1dx58d0","alpaca","no","null","stimuli/organized/EXEMPLAR/USED/Egrapes1.jpg","","","","","memory","false","exemplar","true","","",""
"","null","html-keyboard-response","162","2.0.0","327610","pqzd1dx58d0","alpaca","no","null","<div style=""font-size:60px; color:black;"">+</div>","","","","","","","","","","",""
"","null","image-keyboard-response","163","2.0.0","330614","pqzd1dx58d0","alpaca","no","null","stimuli/organized/STATE/USED/Sdrum2.jpg","","","","","memory","false","state","true","","",""
"","null","html-keyboard-response","164","2.0.0","331618","pqzd1dx58d0","alpaca","no","null","<div style=""font-size:60px; color:black;"">+</div>","","","","","","","","","","",""
"","null","image-keyboard-response","165","2.0.0","334622","pqzd1dx58d0","alpaca","no","null","stimuli/organized/Novel pairs (tested)/n17bweddingdress.jpg","","","","","memory","false","novel","true","","",""
"","86010","html-button-response","166","2.0.0","420635","pqzd1dx58d0","alpaca","no","0","<p>You have completed the study phase.</p><p>Take a short break. Press the button below when you are ready to continue.</p>","","","","","","","","","","",""
"","2138","html-keyboard-response","167","2.0.0","422774","pqzd1dx58d0","alpaca","no"," ","<p>You will now be shown pairs of images.</p><p>Select the image you remember seeing during the study phase.</p><p>Focus on accuracy, not speed.</p><p>Press any key to begin.</p>","","","","","","","","","","",""
"","2291","html-button-response","168","2.0.0","425067","pqzd1dx58d0","alpaca","no","1","Which of these items did you see earlier?","","","","","test","","novel","true","stimuli/organized/Novel pairs (tested)/n08bpaperclip.jpg","stimuli/organized/Novel pairs (tested)/n08aoven.jpg","1"
"","1080","html-button-response","169","2.0.0","426150","pqzd1dx58d0","alpaca","no","1","Which of these items did you see earlier?","","","","","test","","exemplar","true","stimuli/organized/EXEMPLAR/USED/Econe1.jpg","stimuli/organized/EXEMPLAR/USED/Econe2.jpg","1"
"","882","html-button-response","170","2.0.0","427034","pqzd1dx58d0","alpaca","no","1","Which of these items did you see earlier?","","","","","test","","state","true","stimuli/organized/STATE/USED/Scoffeemaker1.JPG","stimuli/organized/STATE/USED/Scoffeemaker2.JPG","1"
"","1099","html-button-response","171","2.0.0","428135","pqzd1dx58d0","alpaca","no","1","Which of these items did you see earlier?","","","","","test","","state","true","stimuli/organized/STATE/USED/Sbox1.jpg","stimuli/organized/STATE/USED/Sbox2.jpg","1"
"","964","html-button-response","172","2.0.0","429100","pqzd1dx58d0","alpaca","no","0","Which of these items did you see earlier?","","","","","test","","novel","true","stimuli/organized/Novel pairs (tested)/n11bsock.jpg","stimuli/organized/Novel pairs (tested)/n11abatteries.jpg","0"
"","2132","html-button-response","173","2.0.0","431235","pqzd1dx58d0","alpaca","no","1","Which of these items did you see earlier?","","","","","test","","state","true","stimuli/organized/STATE/USED/Sdishes2.JPG","stimuli/organized/STATE/USED/Sdishes1.JPG","1"
"","1031","html-button-response","174","2.0.0","432268","pqzd1dx58d0","alpaca","no","1","Which of these items did you see earlier?","","","","","test","","novel","true","stimuli/organized/Novel pairs (tested)/n18bsnail.jpg","stimuli/organized/Novel pairs (tested)/n18apretzel.jpg","1"
"","1448","html-button-response","175","2.0.0","433718","pqzd1dx58d0","alpaca","no","1","Which of these items did you see earlier?","","","","","test","","state","true","stimuli/organized/STATE/USED/Sgrinder1.jpg","stimuli/organized/STATE/USED/Sgrinder2.jpg","1"
"","1315","html-button-response","176","2.0.0","435035","pqzd1dx58d0","alpaca","no","0","Which of these items did you see earlier?","","","","","test","","state","true","stimuli/organized/STATE/USED/Sabacus2.jpg","stimuli/organized/STATE/USED/Sabacus1.jpg","0"
"","3115","html-button-response","177","2.0.0","438151","pqzd1dx58d0","alpaca","no","1","Which of these items did you see earlier?","","","","","test","","state","true","stimuli/organized/STATE/USED/Sdonut1.jpg","stimuli/organized/STATE/USED/Sdonut2.jpg","1"
"","997","html-button-response","178","2.0.0","439151","pqzd1dx58d0","alpaca","no","0","Which of these items did you see earlier?","","","","","test","","state","true","stimuli/organized/STATE/USED/Sbelt2.jpg","stimuli/organized/STATE/USED/Sbelt1.jpg","0"
"","1115","html-button-response","179","2.0.0","440268","pqzd1dx58d0","alpaca","no","1","Which of these items did you see earlier?","","","","","test","","novel","true","stimuli/organized/Novel pairs (tested)/n04bbandaid.jpg","stimuli/organized/Novel pairs (tested)/n04ayarn.jpg","1"
"","982","html-button-response","180","2.0.0","441251","pqzd1dx58d0","alpaca","no","1","Which of these items did you see earlier?","","","","","test","","exemplar","true","stimuli/organized/EXEMPLAR/USED/Ebread1.jpg","stimuli/organized/EXEMPLAR/USED/Ebread2.jpg","1"
"","1498","html-button-response","181","2.0.0","442750","pqzd1dx58d0","alpaca","no","0","Which of these items did you see earlier?","","","","","test","","novel","true","stimuli/organized/Novel pairs (tested)/n16bhammer.jpg","stimuli/organized/Novel pairs (tested)/n16abananas.jpg","0"
"","1682","html-button-response","182","2.0.0","444434","pqzd1dx58d0","alpaca","no","1","Which of these items did you see earlier?","","","","","test","","exemplar","true","stimuli/organized/EXEMPLAR/USED/Egame2.jpg","stimuli/organized/EXEMPLAR/USED/Egame1.jpg","1"
"","1447","html-button-response","183","2.0.0","445884","pqzd1dx58d0","alpaca","no","1","Which of these items did you see earlier?","","","","","test","","state","false","stimuli/organized/STATE/USED/Sbrushes1.jpg","stimuli/organized/STATE/USED/Sbrushes2.jpg","0"
"","1415","html-button-response","184","2.0.0","447301","pqzd1dx58d0","alpaca","no","1","Which of these items did you see earlier?","","","","","test","","state","true","stimuli/organized/STATE/USED/Sgiftbox2.jpg","stimuli/organized/STATE/USED/Sgiftbox1.jpg","1"
"","1048","html-button-response","185","2.0.0","448351","pqzd1dx58d0","alpaca","no","0","Which of these items did you see earlier?","","","","","test","","novel","true","stimuli/organized/Novel pairs (tested)/n07bswimmingpool.jpg","stimuli/organized/Novel pairs (tested)/n07apotato.jpg","0"
"","1048","html-button-response","186","2.0.0","449400","pqzd1dx58d0","alpaca","no","0","Which of these items did you see earlier?","","","","","test","","state","true","stimuli/organized/STATE/USED/Scookies1.JPG","stimuli/organized/STATE/USED/Scookies2.JPG","0"
"","982","html-button-response","187","2.0.0","450384","pqzd1dx58d0","alpaca","no","1","Which of these items did you see earlier?","","","","","test","","exemplar","true","stimuli/organized/EXEMPLAR/USED/Echocolatebar1.jpg","stimuli/organized/EXEMPLAR/USED/Echocolatebar2.jpg","1"
"","5231","html-button-response","188","2.0.0","455616","pqzd1dx58d0","alpaca","no","0","Which of these items did you see earlier?","","","","","test","","exemplar","false","stimuli/organized/EXEMPLAR/USED/Ebasket2.jpg","stimuli/organized/EXEMPLAR/USED/Ebasket1.jpg","1"
"","933","html-button-response","189","2.0.0","456551","pqzd1dx58d0","alpaca","no","1","Which of these items did you see earlier?","","","","","test","","exemplar","true","stimuli/organized/EXEMPLAR/USED/Efeather1.jpg","stimuli/organized/EXEMPLAR/USED/Efeather2.jpg","1"
"","1314","html-button-response","190","2.0.0","457867","pqzd1dx58d0","alpaca","no","1","Which of these items did you see earlier?","","","","","test","","state","false","stimuli/organized/STATE/USED/Sscissors1.JPG","stimuli/organized/STATE/USED/Sscissors2.JPG","0"
"","1448","html-button-response","191","2.0.0","459316","pqzd1dx58d0","alpaca","no","0","Which of these items did you see earlier?","","","","","test","","state","true","stimuli/organized/STATE/USED/Sbabytoy2.JPG","stimuli/organized/STATE/USED/Sbabytoy1.JPG","0"
"","700","html-button-response","192","2.0.0","460017","pqzd1dx58d0","alpaca","no","0","Which of these items did you see earlier?","","","","","test","","exemplar","true","stimuli/organized/EXEMPLAR/USED/Egrapes1.jpg","stimuli/organized/EXEMPLAR/USED/Egrapes2.jpg","0"
"","799","html-button-response","193","2.0.0","460818","pqzd1dx58d0","alpaca","no","0","Which of these items did you see earlier?","","","","","test","","exemplar","true","stimuli/organized/EXEMPLAR/USED/Edispenser1.jpg","stimuli/organized/EXEMPLAR/USED/Edispenser2.jpg","0"
"","948","html-button-response","194","2.0.0","461768","pqzd1dx58d0","alpaca","no","1","Which of these items did you see earlier?","","","","","test","","state","true","stimuli/organized/STATE/USED/Sbooks2.JPG","stimuli/organized/STATE/USED/Sbooks1.JPG","1"
"","848","html-button-response","195","2.0.0","462618","pqzd1dx58d0","alpaca","no","0","Which of these items did you see earlier?","","","","","test","","state","true","stimuli/organized/STATE/USED/Slaptop2.JPG","stimuli/organized/STATE/USED/Slaptop1.JPG","0"
"","2565","html-button-response","196","2.0.0","465184","pqzd1dx58d0","alpaca","no","0","Which of these items did you see earlier?","","","","","test","","state","true","stimuli/organized/STATE/USED/Sscanner1.JPG","stimuli/organized/STATE/USED/Sscanner2.JPG","0"
"","998","html-button-response","197","2.0.0","466184","pqzd1dx58d0","alpaca","no","1","Which of these items did you see earlier?","","","","","test","","state","true","stimuli/organized/STATE/USED/Sdrum2.jpg","stimuli/organized/STATE/USED/Sdrum1.jpg","1"
"","815","html-button-response","198","2.0.0","467001","pqzd1dx58d0","alpaca","no","0","Which of these items did you see earlier?","","","","","test","","exemplar","true","stimuli/organized/EXEMPLAR/USED/Ebell2.jpg","stimuli/organized/EXEMPLAR/USED/Ebell1.jpg","0"
"","799","html-button-response","199","2.0.0","467801","pqzd1dx58d0","alpaca","no","0","Which of these items did you see earlier?","","","","","test","","novel","true","stimuli/organized/Novel pairs (tested)/n09apenguin.jpg","stimuli/organized/Novel pairs (tested)/n09bsaddle.jpg","0"
"","1364","html-button-response","200","2.0.0","469167","pqzd1dx58d0","alpaca","no","0","Which of these items did you see earlier?","","","","","test","","state","true","stimuli/organized/STATE/USED/Sbreadbox2.JPG","stimuli/organized/STATE/USED/Sbreadbox1.JPG","0"
"","982","html-button-response","201","2.0.0","470151","pqzd1dx58d0","alpaca","no","0","Which of these items did you see earlier?","","","","","test","","state","true","stimuli/organized/STATE/USED/Scrayons1.jpg","stimuli/organized/STATE/USED/Scrayons2.jpg","0"
"","1365","html-button-response","202","2.0.0","471518","pqzd1dx58d0","alpaca","no","1","Which of these items did you see earlier?","","","","","test","","novel","true","stimuli/organized/Novel pairs (tested)/n01aladybug.jpg","stimuli/organized/Novel pairs (tested)/n01bcoin.jpg","1"
"","3765","html-button-response","203","2.0.0","475284","pqzd1dx58d0","alpaca","no","0","Which of these items did you see earlier?","","","","","test","","state","true","stimuli/organized/STATE/USED/Schinesefoodbox2.jpg","stimuli/organized/STATE/USED/Schinesefoodbox1.jpg","0"
"","1198","html-button-response","204","2.0.0","476484","pqzd1dx58d0","alpaca","no","1","Which of these items did you see earlier?","","","","","test","","novel","true","stimuli/organized/Novel pairs (tested)/n17bweddingdress.jpg","stimuli/organized/Novel pairs (tested)/n17avendingmachine.jpg","1"
"","1765","html-button-response","205","2.0.0","478251","pqzd1dx58d0","alpaca","no","1","Which of these items did you see earlier?","","","","","test","","state","true","stimuli/organized/STATE/USED/Spie1.JPG","stimuli/organized/STATE/USED/Spie2.JPG","1"
"","931","html-button-response","206","2.0.0","479184","pqzd1dx58d0","alpaca","no","1","Which of these items did you see earlier?","","","","","test","","exemplar","true","stimuli/organized/EXEMPLAR/USED/Ecamera1.jpg","stimuli/organized/EXEMPLAR/USED/Ecamera2.jpg","1"
"","1698","html-button-response","207","2.0.0","480884","pqzd1dx58d0","alpaca","no","1","Which of these items did you see earlier?","","","","","test","","state","false","stimuli/organized/STATE/USED/Sflask1.jpg","stimuli/organized/STATE/USED/Sflask2.jpg","0"
"","1248","html-button-response","208","2.0.0","482134","pqzd1dx58d0","alpaca","no","0","Which of these items did you see earlier?","","","","","test","","exemplar","true","stimuli/organized/EXEMPLAR/USED/Ecar1.jpg","stimuli/organized/EXEMPLAR/USED/Ecar2.jpg","0"
"","1480","html-button-response","209","2.0.0","483616","pqzd1dx58d0","alpaca","no","0","Which of these items did you see earlier?","","","","","test","","state","true","stimuli/organized/STATE/USED/Sphone2.JPG","stimuli/organized/STATE/USED/Sphone1.JPG","0"
"","3083","html-button-response","210","2.0.0","486700","pqzd1dx58d0","alpaca","no","1","Which of these items did you see earlier?","","","","","test","","state","true","stimuli/organized/STATE/USED/Sbriefcase2.jpg","stimuli/organized/STATE/USED/Sbriefcase1.jpg","1"
"","2081","html-button-response","211","2.0.0","488783","pqzd1dx58d0","alpaca","no","1","Which of these items did you see earlier?","","","","","test","","exemplar","true","stimuli/organized/EXEMPLAR/USED/Efan2.jpg","stimuli/organized/EXEMPLAR/USED/Efan1.jpg","1"
"","2782","html-button-response","212","2.0.0","491567","pqzd1dx58d0","alpaca","no","0","Which of these items did you see earlier?","","","","","test","","state","false","stimuli/organized/STATE/USED/Sapplesgreenbasket2.jpg","stimuli/organized/STATE/USED/Sapplesgreenbasket1.jpg","1"
"","915","html-button-response","213","2.0.0","492484","pqzd1dx58d0","alpaca","no","0","Which of these items did you see earlier?","","","","","test","","state","true","stimuli/organized/STATE/USED/Spotpan2.JPG","stimuli/organized/STATE/USED/Spotpan1.JPG","0"
"","1632","html-button-response","214","2.0.0","494118","pqzd1dx58d0","alpaca","no","1","Which of these items did you see earlier?","","","","","test","","novel","true","stimuli/organized/Novel pairs (tested)/n13bdustpan.jpg","stimuli/organized/Novel pairs (tested)/n13ablueberries.jpg","1"
"","897","html-button-response","215","2.0.0","495017","pqzd1dx58d0","alpaca","no","1","Which of these items did you see earlier?","","","","","test","","novel","true","stimuli/organized/Novel pairs (tested)/n19apickle.jpg","stimuli/organized/Novel pairs (tested)/n19bhairbrush.jpg","1"
"","1565","html-button-response","216","2.0.0","496584","pqzd1dx58d0","alpaca","no","0","Which of these items did you see earlier?","","","","","test","","exemplar","true","stimuli/organized/EXEMPLAR/USED/Ecalculator1.jpg","stimuli/organized/EXEMPLAR/USED/Ecalculator2.jpg","0"
"","1298","html-button-response","217","2.0.0","497884","pqzd1dx58d0","alpaca","no","1","Which of these items did you see earlier?","","","","","test","","state","true","stimuli/organized/STATE/USED/Sbureau1.JPG","stimuli/organized/STATE/USED/Sbureau2.JPG","1"
"","915","html-button-response","218","2.0.0","498800","pqzd1dx58d0","alpaca","no","0","Which of these items did you see earlier?","","","","","test","","novel","true","stimuli/organized/Novel pairs (tested)/n12bwatch.jpg","stimuli/organized/Novel pairs (tested)/n12atelescope.jpg","0"
"","1065","html-button-response","219","2.0.0","499868","pqzd1dx58d0","alpaca","no","0","Which of these items did you see earlier?","","","","","test","","state","true","stimuli/organized/STATE/USED/Sdie1.jpg","stimuli/organized/STATE/USED/Sdie2.jpg","0"
"","2198","html-button-response","220","2.0.0","502068","pqzd1dx58d0","alpaca","no","0","Which of these items did you see earlier?","","","","","test","","novel","true","stimuli/organized/Novel pairs (tested)/n03bbagel.jpg","stimuli/organized/Novel pairs (tested)/n03acamel.jpg","0"
"","880","html-button-response","221","2.0.0","502950","pqzd1dx58d0","alpaca","no","0","Which of these items did you see earlier?","","","","","test","","novel","true","stimuli/organized/Novel pairs (tested)/n10bturkey.jpg","stimuli/organized/Novel pairs (tested)/n10awindmill.jpg","0"
"","2631","html-button-response","222","2.0.0","505582","pqzd1dx58d0","alpaca","no","1","Which of these items did you see earlier?","","","","","test","","exemplar","false","stimuli/organized/EXEMPLAR/USED/Eframe2.jpg","stimuli/organized/EXEMPLAR/USED/Eframe1.jpg","0"
"","5634","html-button-response","223","2.0.0","511218","pqzd1dx58d0","alpaca","no","0","Which of these items did you see earlier?","","","","","test","","novel","true","stimuli/organized/Novel pairs (tested)/n20acarseat.jpg","stimuli/organized/Novel pairs (tested)/n20bshelf.jpg","0"
"","1698","html-button-response","224","2.0.0","512917","pqzd1dx58d0","alpaca","no","1","Which of these items did you see earlier?","","","","","test","","state","true","stimuli/organized/STATE/USED/Shairbrush2.jpg","stimuli/organized/STATE/USED/Shairbrush1.jpg","1"
"","1649","html-button-response","225","2.0.0","514568","pqzd1dx58d0","alpaca","no","1","Which of these items did you see earlier?","","","","","test","","state","true","stimuli/organized/STATE/USED/Sfiretrucktoy2.jpg","stimuli/organized/STATE/USED/Sfiretrucktoy1.jpg","1"
"","1048","html-button-response","226","2.0.0","515618","pqzd1dx58d0","alpaca","no","0","Which of these items did you see earlier?","","","","","test","","exemplar","true","stimuli/organized/EXEMPLAR/USED/Eglobe1.jpg","stimuli/organized/EXEMPLAR/USED/Eglobe2.jpg","0"
"","1565","html-button-response","227","2.0.0","517184","pqzd1dx58d0","alpaca","no","1","Which of these items did you see earlier?","","","","","test","","novel","true","stimuli/organized/Novel pairs (tested)/n02aaxe.jpg","stimuli/organized/Novel pairs (tested)/n02bsafetypin.jpg","1"
"","1598","html-button-response","228","2.0.0","518784","pqzd1dx58d0","alpaca","no","0","Which of these items did you see earlier?","","","","","test","","exemplar","true","stimuli/organized/EXEMPLAR/USED/Ebicycle1.jpg","stimuli/organized/EXEMPLAR/USED/Ebicycle2.jpg","0"
"","1731","html-button-response","229","2.0.0","520517","pqzd1dx58d0","alpaca","no","1","Which of these items did you see earlier?","","","","","test","","exemplar","true","stimuli/organized/EXEMPLAR/USED/Ebracelet1.jpg","stimuli/organized/EXEMPLAR/USED/Ebracelet2.jpg","1"
"","1448","html-button-response","230","2.0.0","521967","pqzd1dx58d0","alpaca","no","0","Which of these items did you see earlier?","","","","","test","","state","true","stimuli/organized/STATE/USED/Scontainer1.JPG","stimuli/organized/STATE/USED/Scontainer2.JPG","0"
"","5797","html-button-response","231","2.0.0","527767","pqzd1dx58d0","alpaca","no","1","Which of these items did you see earlier?","","","","","test","","exemplar","false","stimuli/organized/EXEMPLAR/USED/Egoggles1.jpg","stimuli/organized/EXEMPLAR/USED/Egoggles2.jpg","0"
"","1331","html-button-response","232","2.0.0","529100","pqzd1dx58d0","alpaca","no","1","Which of these items did you see earlier?","","","","","test","","state","true","stimuli/organized/STATE/USED/Seggs2.jpg","stimuli/organized/STATE/USED/Seggs1.jpg","1"
"","1632","html-button-response","233","2.0.0","530734","pqzd1dx58d0","alpaca","no","1","Which of these items did you see earlier?","","","","","test","","novel","true","stimuli/organized/Novel pairs (tested)/n14acigarette.jpg","stimuli/organized/Novel pairs (tested)/n14bgolfball.jpg","1"
"","1915","html-button-response","234","2.0.0","532651","pqzd1dx58d0","alpaca","no","1","Which of these items did you see earlier?","","","","","test","","exemplar","false","stimuli/organized/EXEMPLAR/USED/Ecabinet2.jpg","stimuli/organized/EXEMPLAR/USED/Ecabinet1.jpg","0"
"","1114","html-button-response","235","2.0.0","533766","pqzd1dx58d0","alpaca","no","0","Which of these items did you see earlier?","","","","","test","","state","true","stimuli/organized/STATE/USED/Sdresser1.jpg","stimuli/organized/STATE/USED/Sdresser2.jpg","0"
"","883","html-button-response","236","2.0.0","534649","pqzd1dx58d0","alpaca","no","0","Which of these items did you see earlier?","","","","","test","","novel","true","stimuli/organized/Novel pairs (tested)/n06blipstick.jpg","stimuli/organized/Novel pairs (tested)/n06acane.jpg","0"
"","1233","html-button-response","237","2.0.0","535883","pqzd1dx58d0","alpaca","no","1","Which of these items did you see earlier?","","","","","test","","state","true","stimuli/organized/STATE/USED/Sgiftbag1.jpg","stimuli/organized/STATE/USED/Sgiftbag2.jpg","1"
"","981","html-button-response","238","2.0.0","536866","pqzd1dx58d0","alpaca","no","1","Which of these items did you see earlier?","","","","","test","","exemplar","true","stimuli/organized/EXEMPLAR/USED/Echisel2.jpg","stimuli/organized/EXEMPLAR/USED/Echisel1.jpg","1"
"","1365","html-button-response","239","2.0.0","538233","pqzd1dx58d0","alpaca","no","1","Which of these items did you see earlier?","","","","","test","","state","true","stimuli/organized/STATE/USED/Sdryer1.jpg","stimuli/organized/STATE/USED/Sdryer2.jpg","1"
"","1732","html-button-response","240","2.0.0","539967","pqzd1dx58d0","alpaca","no","1","Which of these items did you see earlier?","","","","","test","","state","true","stimuli/organized/STATE/USED/Sjuiceglass1.JPG","stimuli/organized/STATE/USED/Sjuiceglass2.JPG","1"
"","1915","html-button-response","241","2.0.0","541884","pqzd1dx58d0","alpaca","no","0","Which of these items did you see earlier?","","","","","test","","state","false","stimuli/organized/STATE/USED/Sbottles2.JPG","stimuli/organized/STATE/USED/Sbottles1.JPG","1"
"","2164","html-button-response","242","2.0.0","544050","pqzd1dx58d0","alpaca","no","0","Which of these items did you see earlier?","","","","","test","","novel","true","stimuli/organized/Novel pairs (tested)/n05abarrel.jpg","stimuli/organized/Novel pairs (tested)/n05bcactus.jpg","0"
"","699","html-button-response","243","2.0.0","544750","pqzd1dx58d0","alpaca","no","0","Which of these items did you see earlier?","","","","","test","","novel","true","stimuli/organized/Novel pairs (tested)/n15bfootball.jpg","stimuli/organized/Novel pairs (tested)/n15aspiderweb.jpg","0"
"","9531","survey-html-form","244","2.0.0","554285","pqzd1dx58d0","alpaca","no","{""age"":""23"",""gender"":""male"",""memory_experiment_experience"":""yes""}","","","","","","","","","","","",""
"","25296","survey-text","245","2.0.0","579585","pqzd1dx58d0","alpaca","no","{""task_guess"":""memory capacity in between novel, state, and exemplar items, 3 conditions, at random""}","","","","","","","","","","","",""
"","2516","survey-text","246","2.0.0","582102","pqzd1dx58d0","alpaca","no","{""technical_issues_question"":""no""}","","","","","","","","","","","",""
