"success","rt","trial_type","trial_index","plugin_version","time_elapsed","random_id","participant","technical_issues","response","stimulus","timeout","failed_images","failed_audio","failed_video","trial_phase","is_repeat","test_type","correct","old_image","new_image","correct_position"
"true","1559","fullscreen","0","null","2564","prouwgdxuxv","cub","no","","","","","","","","","","","","",""
"","4837","survey-text","1","2.0.0","7403","prouwgdxuxv","cub","no","{""participant_id"":""cub""}","","","","","","","","","","","",""
"","18631","html-keyboard-response","2","2.0.0","26042","prouwgdxuxv","cub","no"," ","
      <p>In this experiment, a series of objects will be displayed.</p>
      <p>Try to memorize as much as possible about the objects.</p>
      <p>If the image is a <strong> repeat</strong>, press the SPACEBAR.</p>
      <p>Press any key to begin.</p>
    ","","","","","","","","","","",""
"true","","preload","3","2.0.0","26426","prouwgdxuxv","cub","no","","","false","[]","[]","[]","","","","","","",""
"","null","html-keyboard-response","4","2.0.0","27428","prouwgdxuxv","cub","no","null","<div style=""font-size:60px;"">+</div>","","","","","","","","","","",""
"","null","image-keyboard-response","5","2.0.0","30435","prouwgdxuxv","cub","no","null","stimuli/organized/EXEMPLAR/USED/Egrapes2.jpg","","","","","memory","false","exemplar","true","","",""
"","null","html-keyboard-response","6","2.0.0","31439","prouwgdxuxv","cub","no","null","<div style=""font-size:60px; color:black;"">+</div>","","","","","","","","","","",""
"","null","image-keyboard-response","7","2.0.0","34444","prouwgdxuxv","cub","no","null","stimuli/organized/Novel pairs (tested)/n14bgolfball.jpg","","","","","memory","false","novel","true","","",""
"","null","html-keyboard-response","8","2.0.0","35448","prouwgdxuxv","cub","no","null","<div style=""font-size:60px; color:black;"">+</div>","","","","","","","","","","",""
"","null","image-keyboard-response","9","2.0.0","38453","prouwgdxuxv","cub","no","null","stimuli/organized/Novel pairs (tested)/n01bcoin.jpg","","","","","memory","false","novel","true","","",""
"","null","html-keyboard-response","10","2.0.0","39457","prouwgdxuxv","cub","no","null","<div style=""font-size:60px; color:black;"">+</div>","","","","","","","","","","",""
"","null","image-keyboard-response","11","2.0.0","42462","prouwgdxuxv","cub","no","null","stimuli/organized/STATE/USED/Sbriefcase2.jpg","","","","","memory","false","state","true","","",""
"","null","html-keyboard-response","12","2.0.0","43466","prouwgdxuxv","cub","no","null","<div style=""font-size:60px; color:black;"">+</div>","","","","","","","","","","",""
"","null","image-keyboard-response","13","2.0.0","46471","prouwgdxuxv","cub","no","null","stimuli/organized/STATE/USED/Sbox2.jpg","","","","","memory","false","state","true","","",""
"","null","html-keyboard-response","14","2.0.0","47475","prouwgdxuxv","cub","no","null","<div style=""font-size:60px; color:black;"">+</div>","","","","","","","","","","",""
"","null","image-keyboard-response","15","2.0.0","50479","prouwgdxuxv","cub","no","null","stimuli/organized/Novel pairs (tested)/n05abarrel.jpg","","","","","memory","false","novel","true","","",""
"","null","html-keyboard-response","16","2.0.0","51482","prouwgdxuxv","cub","no","null","<div style=""font-size:60px; color:black;"">+</div>","","","","","","","","","","",""
"","null","image-keyboard-response","17","2.0.0","54488","prouwgdxuxv","cub","no","null","stimuli/organized/EXEMPLAR/USED/Echocolatebar2.jpg","","","","","memory","false","exemplar","true","","",""
"","null","html-keyboard-response","18","2.0.0","55492","prouwgdxuxv","cub","no","null","<div style=""font-size:60px; color:black;"">+</div>","","","","","","","","","","",""
"","null","image-keyboard-response","19","2.0.0","58496","prouwgdxuxv","cub","no","null","stimuli/organized/STATE/USED/Schinesefoodbox1.jpg","","","","","memory","false","state","true","","",""
"","null","html-keyboard-response","20","2.0.0","59499","prouwgdxuxv","cub","no","null","<div style=""font-size:60px; color:black;"">+</div>","","","","","","","","","","",""
"","null","image-keyboard-response","21","2.0.0","62503","prouwgdxuxv","cub","no","null","stimuli/organized/EXEMPLAR/USED/Ebracelet2.jpg","","","","","memory","false","exemplar","true","","",""
"","null","html-keyboard-response","22","2.0.0","63507","prouwgdxuxv","cub","no","null","<div style=""font-size:60px; color:black;"">+</div>","","","","","","","","","","",""
"","null","image-keyboard-response","23","2.0.0","66511","prouwgdxuxv","cub","no","null","stimuli/organized/STATE/USED/Sbelt1.jpg","","","","","memory","false","state","true","","",""
"","null","html-keyboard-response","24","2.0.0","67514","prouwgdxuxv","cub","no","null","<div style=""font-size:60px; color:black;"">+</div>","","","","","","","","","","",""
"","null","image-keyboard-response","25","2.0.0","70519","prouwgdxuxv","cub","no","null","stimuli/organized/EXEMPLAR/USED/Efan1.jpg","","","","","memory","false","exemplar","true","","",""
"","null","html-keyboard-response","26","2.0.0","71522","prouwgdxuxv","cub","no","null","<div style=""font-size:60px; color:black;"">+</div>","","","","","","","","","","",""
"","null","image-keyboard-response","27","2.0.0","74527","prouwgdxuxv","cub","no","null","stimuli/organized/EXEMPLAR/USED/Ebicycle2.jpg","","","","","memory","false","exemplar","true","","",""
"","null","html-keyboard-response","28","2.0.0","75530","prouwgdxuxv","cub","no","null","<div style=""font-size:60px; color:black;"">+</div>","","","","","","","","","","",""
"","null","image-keyboard-response","29","2.0.0","78536","prouwgdxuxv","cub","no","null","stimuli/organized/EXEMPLAR/USED/Egame1.jpg","","","","","memory","false","exemplar","true","","",""
"","null","html-keyboard-response","30","2.0.0","79540","prouwgdxuxv","cub","no","null","<div style=""font-size:60px; color:black;"">+</div>","","","","","","","","","","",""
"","null","image-keyboard-response","31","2.0.0","82543","prouwgdxuxv","cub","no","null","stimuli/organized/Novel pairs (tested)/n07apotato.jpg","","","","","memory","false","novel","true","","",""
"","null","html-keyboard-response","32","2.0.0","83546","prouwgdxuxv","cub","no","null","<div style=""font-size:60px; color:black;"">+</div>","","","","","","","","","","",""
"","null","image-keyboard-response","33","2.0.0","86550","prouwgdxuxv","cub","no","null","stimuli/organized/STATE/USED/Sflask1.jpg","","","","","memory","false","state","true","","",""
"","null","html-keyboard-response","34","2.0.0","87552","prouwgdxuxv","cub","no","null","<div style=""font-size:60px; color:black;"">+</div>","","","","","","","","","","",""
"","null","image-keyboard-response","35","2.0.0","90558","prouwgdxuxv","cub","no","null","stimuli/organized/Novel pairs (tested)/n11abatteries.jpg","","","","","memory","false","novel","true","","",""
"","null","html-keyboard-response","36","2.0.0","91561","prouwgdxuxv","cub","no","null","<div style=""font-size:60px; color:black;"">+</div>","","","","","","","","","","",""
"","null","image-keyboard-response","37","2.0.0","94566","prouwgdxuxv","cub","no","null","stimuli/organized/STATE/USED/Scoffeemaker1.JPG","","","","","memory","false","state","true","","",""
"","null","html-keyboard-response","38","2.0.0","95569","prouwgdxuxv","cub","no","null","<div style=""font-size:60px; color:black;"">+</div>","","","","","","","","","","",""
"","null","image-keyboard-response","39","2.0.0","98574","prouwgdxuxv","cub","no","null","stimuli/organized/STATE/USED/Sdishes2.JPG","","","","","memory","false","state","true","","",""
"","null","html-keyboard-response","40","2.0.0","99577","prouwgdxuxv","cub","no","null","<div style=""font-size:60px; color:black;"">+</div>","","","","","","","","","","",""
"","null","image-keyboard-response","41","2.0.0","102583","prouwgdxuxv","cub","no","null","stimuli/organized/STATE/USED/Sbabytoy1.JPG","","","","","memory","false","state","true","","",""
"","null","html-keyboard-response","42","2.0.0","103586","prouwgdxuxv","cub","no","null","<div style=""font-size:60px; color:black;"">+</div>","","","","","","","","","","",""
"","null","image-keyboard-response","43","2.0.0","106591","prouwgdxuxv","cub","no","null","stimuli/organized/STATE/USED/Sabacus2.jpg","","","","","memory","false","state","true","","",""
"","null","html-keyboard-response","44","2.0.0","107594","prouwgdxuxv","cub","no","null","<div style=""font-size:60px; color:black;"">+</div>","","","","","","","","","","",""
"","null","image-keyboard-response","45","2.0.0","110599","prouwgdxuxv","cub","no","null","stimuli/organized/STATE/USED/Sdresser2.jpg","","","","","memory","false","state","true","","",""
"","null","html-keyboard-response","46","2.0.0","111601","prouwgdxuxv","cub","no","null","<div style=""font-size:60px; color:black;"">+</div>","","","","","","","","","","",""
"","null","image-keyboard-response","47","2.0.0","114605","prouwgdxuxv","cub","no","null","stimuli/organized/STATE/USED/Spotpan2.JPG","","","","","memory","false","state","true","","",""
"","null","html-keyboard-response","48","2.0.0","115608","prouwgdxuxv","cub","no","null","<div style=""font-size:60px; color:black;"">+</div>","","","","","","","","","","",""
"","null","image-keyboard-response","49","2.0.0","118613","prouwgdxuxv","cub","no","null","stimuli/organized/STATE/USED/Sfiretrucktoy1.jpg","","","","","memory","false","state","true","","",""
"","null","html-keyboard-response","50","2.0.0","119617","prouwgdxuxv","cub","no","null","<div style=""font-size:60px; color:black;"">+</div>","","","","","","","","","","",""
"","null","image-keyboard-response","51","2.0.0","122621","prouwgdxuxv","cub","no","null","stimuli/organized/Novel pairs (tested)/n08bpaperclip.jpg","","","","","memory","false","novel","true","","",""
"","null","html-keyboard-response","52","2.0.0","123625","prouwgdxuxv","cub","no","null","<div style=""font-size:60px; color:black;"">+</div>","","","","","","","","","","",""
"","null","image-keyboard-response","53","2.0.0","126628","prouwgdxuxv","cub","no","null","stimuli/organized/STATE/USED/Spie1.JPG","","","","","memory","false","state","true","","",""
"","null","html-keyboard-response","54","2.0.0","127631","prouwgdxuxv","cub","no","null","<div style=""font-size:60px; color:black;"">+</div>","","","","","","","","","","",""
"","null","image-keyboard-response","55","2.0.0","130636","prouwgdxuxv","cub","no","null","stimuli/organized/STATE/USED/Scontainer1.JPG","","","","","memory","false","state","true","","",""
"","null","html-keyboard-response","56","2.0.0","131640","prouwgdxuxv","cub","no","null","<div style=""font-size:60px; color:black;"">+</div>","","","","","","","","","","",""
"","null","image-keyboard-response","57","2.0.0","134644","prouwgdxuxv","cub","no","null","stimuli/organized/STATE/USED/Scrayons1.jpg","","","","","memory","false","state","true","","",""
"","null","html-keyboard-response","58","2.0.0","135648","prouwgdxuxv","cub","no","null","<div style=""font-size:60px; color:black;"">+</div>","","","","","","","","","","",""
"","null","image-keyboard-response","59","2.0.0","138654","prouwgdxuxv","cub","no","null","stimuli/organized/STATE/USED/Sbrushes2.jpg","","","","","memory","false","state","true","","",""
"","null","html-keyboard-response","60","2.0.0","139657","prouwgdxuxv","cub","no","null","<div style=""font-size:60px; color:black;"">+</div>","","","","","","","","","","",""
"","null","image-keyboard-response","61","2.0.0","142663","prouwgdxuxv","cub","no","null","stimuli/organized/EXEMPLAR/USED/Ecalculator2.jpg","","","","","memory","false","exemplar","true","","",""
"","null","html-keyboard-response","62","2.0.0","143667","prouwgdxuxv","cub","no","null","<div style=""font-size:60px; color:black;"">+</div>","","","","","","","","","","",""
"","null","image-keyboard-response","63","2.0.0","146672","prouwgdxuxv","cub","no","null","stimuli/organized/STATE/USED/Sjuiceglass1.JPG","","","","","memory","false","state","true","","",""
"","null","html-keyboard-response","64","2.0.0","147674","prouwgdxuxv","cub","no","null","<div style=""font-size:60px; color:black;"">+</div>","","","","","","","","","","",""
"","null","image-keyboard-response","65","2.0.0","150679","prouwgdxuxv","cub","no","null","stimuli/organized/STATE/USED/Sgrinder2.jpg","","","","","memory","false","state","true","","",""
"","null","html-keyboard-response","66","2.0.0","151683","prouwgdxuxv","cub","no","null","<div style=""font-size:60px; color:black;"">+</div>","","","","","","","","","","",""
"","null","image-keyboard-response","67","2.0.0","154687","prouwgdxuxv","cub","no","null","stimuli/organized/EXEMPLAR/USED/Echisel2.jpg","","","","","memory","false","exemplar","true","","",""
"","null","html-keyboard-response","68","2.0.0","155691","prouwgdxuxv","cub","no","null","<div style=""font-size:60px; color:black;"">+</div>","","","","","","","","","","",""
"","null","image-keyboard-response","69","2.0.0","158696","prouwgdxuxv","cub","no","null","stimuli/organized/EXEMPLAR/USED/Ebread1.jpg","","","","","memory","false","exemplar","true","","",""
"","null","html-keyboard-response","70","2.0.0","159699","prouwgdxuxv","cub","no","null","<div style=""font-size:60px; color:black;"">+</div>","","","","","","","","","","",""
"","null","image-keyboard-response","71","2.0.0","162704","prouwgdxuxv","cub","no","null","stimuli/organized/EXEMPLAR/USED/Eframe2.jpg","","","","","memory","false","exemplar","true","","",""
"","null","html-keyboard-response","72","2.0.0","163708","prouwgdxuxv","cub","no","null","<div style=""font-size:60px; color:black;"">+</div>","","","","","","","","","","",""
"","null","image-keyboard-response","73","2.0.0","166713","prouwgdxuxv","cub","no","null","stimuli/organized/EXEMPLAR/USED/Ebell1.jpg","","","","","memory","false","exemplar","true","","",""
"","null","html-keyboard-response","74","2.0.0","167716","prouwgdxuxv","cub","no","null","<div style=""font-size:60px; color:black;"">+</div>","","","","","","","","","","",""
"","null","image-keyboard-response","75","2.0.0","170721","prouwgdxuxv","cub","no","null","stimuli/organized/STATE/USED/Sgiftbag2.jpg","","","","","memory","false","state","true","","",""
"","null","html-keyboard-response","76","2.0.0","171724","prouwgdxuxv","cub","no","null","<div style=""font-size:60px; color:black;"">+</div>","","","","","","","","","","",""
"","null","image-keyboard-response","77","2.0.0","174728","prouwgdxuxv","cub","no","null","stimuli/organized/STATE/USED/Scookies2.JPG","","","","","memory","false","state","true","","",""
"","null","html-keyboard-response","78","2.0.0","175732","prouwgdxuxv","cub","no","null","<div style=""font-size:60px; color:black;"">+</div>","","","","","","","","","","",""
"","null","image-keyboard-response","79","2.0.0","178737","prouwgdxuxv","cub","no","null","stimuli/organized/STATE/USED/Sscissors2.JPG","","","","","memory","false","state","true","","",""
"","null","html-keyboard-response","80","2.0.0","179741","prouwgdxuxv","cub","no","null","<div style=""font-size:60px; color:black;"">+</div>","","","","","","","","","","",""
"","2062","image-keyboard-response","81","2.0.0","182744","prouwgdxuxv","cub","no"," ","stimuli/organized/STATE/USED/Sdonut1.jpg","","","","","memory","false","state","false","","",""
"","null","html-keyboard-response","82","2.0.0","183748","prouwgdxuxv","cub","no","null","<div style=""font-size:60px; color:red;"">+</div>","","","","","","","","","","",""
"","null","image-keyboard-response","83","2.0.0","186753","prouwgdxuxv","cub","no","null","stimuli/organized/Novel pairs (tested)/n13bdustpan.jpg","","","","","memory","false","novel","true","","",""
"","null","html-keyboard-response","84","2.0.0","187756","prouwgdxuxv","cub","no","null","<div style=""font-size:60px; color:black;"">+</div>","","","","","","","","","","",""
"","null","image-keyboard-response","85","2.0.0","190760","prouwgdxuxv","cub","no","null","stimuli/organized/STATE/USED/Sbreadbox2.JPG","","","","","memory","false","state","true","","",""
"","null","html-keyboard-response","86","2.0.0","191763","prouwgdxuxv","cub","no","null","<div style=""font-size:60px; color:black;"">+</div>","","","","","","","","","","",""
"","1475","image-keyboard-response","87","2.0.0","194768","prouwgdxuxv","cub","no"," ","stimuli/organized/STATE/USED/Sphone2.JPG","","","","","memory","false","state","false","","",""
"","null","html-keyboard-response","88","2.0.0","195772","prouwgdxuxv","cub","no","null","<div style=""font-size:60px; color:red;"">+</div>","","","","","","","","","","",""
"","null","image-keyboard-response","89","2.0.0","198776","prouwgdxuxv","cub","no","null","stimuli/organized/Novel pairs (tested)/n02bsafetypin.jpg","","","","","memory","false","novel","true","","",""
"","null","html-keyboard-response","90","2.0.0","199779","prouwgdxuxv","cub","no","null","<div style=""font-size:60px; color:black;"">+</div>","","","","","","","","","","",""
"","null","image-keyboard-response","91","2.0.0","202783","prouwgdxuxv","cub","no","null","stimuli/organized/STATE/USED/Sbooks1.JPG","","","","","memory","false","state","true","","",""
"","null","html-keyboard-response","92","2.0.0","203786","prouwgdxuxv","cub","no","null","<div style=""font-size:60px; color:black;"">+</div>","","","","","","","","","","",""
"","null","image-keyboard-response","93","2.0.0","206793","prouwgdxuxv","cub","no","null","stimuli/organized/Novel pairs (tested)/n18bsnail.jpg","","","","","memory","false","novel","true","","",""
"","null","html-keyboard-response","94","2.0.0","207794","prouwgdxuxv","cub","no","null","<div style=""font-size:60px; color:black;"">+</div>","","","","","","","","","","",""
"","1648","image-keyboard-response","95","2.0.0","210799","prouwgdxuxv","cub","no"," ","stimuli/organized/STATE/USED/Sdrum2.jpg","","","","","memory","false","state","false","","",""
"","null","html-keyboard-response","96","2.0.0","211801","prouwgdxuxv","cub","no","null","<div style=""font-size:60px; color:red;"">+</div>","","","","","","","","","","",""
"","null","image-keyboard-response","97","2.0.0","214805","prouwgdxuxv","cub","no","null","stimuli/organized/Novel pairs (tested)/n10bturkey.jpg","","","","","memory","false","novel","true","","",""
"","null","html-keyboard-response","98","2.0.0","215808","prouwgdxuxv","cub","no","null","<div style=""font-size:60px; color:black;"">+</div>","","","","","","","","","","",""
"","null","image-keyboard-response","99","2.0.0","218810","prouwgdxuxv","cub","no","null","stimuli/organized/EXEMPLAR/USED/Ebasket1.jpg","","","","","memory","false","exemplar","true","","",""
"","null","html-keyboard-response","100","2.0.0","219814","prouwgdxuxv","cub","no","null","<div style=""font-size:60px; color:black;"">+</div>","","","","","","","","","","",""
"","null","image-keyboard-response","101","2.0.0","222817","prouwgdxuxv","cub","no","null","stimuli/organized/EXEMPLAR/USED/Ecamera2.jpg","","","","","memory","false","exemplar","true","","",""
"","null","html-keyboard-response","102","2.0.0","223821","prouwgdxuxv","cub","no","null","<div style=""font-size:60px; color:black;"">+</div>","","","","","","","","","","",""
"","null","image-keyboard-response","103","2.0.0","226826","prouwgdxuxv","cub","no","null","stimuli/organized/EXEMPLAR/USED/Eglobe1.jpg","","","","","memory","false","exemplar","true","","",""
"","null","html-keyboard-response","104","2.0.0","227830","prouwgdxuxv","cub","no","null","<div style=""font-size:60px; color:black;"">+</div>","","","","","","","","","","",""
"","null","image-keyboard-response","105","2.0.0","230835","prouwgdxuxv","cub","no","null","stimuli/organized/EXEMPLAR/USED/Edispenser1.jpg","","","","","memory","false","exemplar","true","","",""
"","null","html-keyboard-response","106","2.0.0","231838","prouwgdxuxv","cub","no","null","<div style=""font-size:60px; color:black;"">+</div>","","","","","","","","","","",""
"","null","image-keyboard-response","107","2.0.0","234843","prouwgdxuxv","cub","no","null","stimuli/organized/Novel pairs (tested)/n12bwatch.jpg","","","","","memory","false","novel","true","","",""
"","null","html-keyboard-response","108","2.0.0","235846","prouwgdxuxv","cub","no","null","<div style=""font-size:60px; color:black;"">+</div>","","","","","","","","","","",""
"","2203","image-keyboard-response","109","2.0.0","238851","prouwgdxuxv","cub","no"," ","stimuli/organized/Novel pairs (tested)/n03bbagel.jpg","","","","","memory","false","novel","false","","",""
"","null","html-keyboard-response","110","2.0.0","239854","prouwgdxuxv","cub","no","null","<div style=""font-size:60px; color:red;"">+</div>","","","","","","","","","","",""
"","null","image-keyboard-response","111","2.0.0","242859","prouwgdxuxv","cub","no","null","stimuli/organized/Novel pairs (tested)/n15aspiderweb.jpg","","","","","memory","false","novel","true","","",""
"","null","html-keyboard-response","112","2.0.0","243862","prouwgdxuxv","cub","no","null","<div style=""font-size:60px; color:black;"">+</div>","","","","","","","","","","",""
"","null","image-keyboard-response","113","2.0.0","246867","prouwgdxuxv","cub","no","null","stimuli/organized/STATE/USED/Scontainer1.JPG","","","","","memory","true","state","false","","",""
"","null","html-keyboard-response","114","2.0.0","247869","prouwgdxuxv","cub","no","null","<div style=""font-size:60px; color:black;"">+</div>","","","","","","","","","","",""
"","null","image-keyboard-response","115","2.0.0","250873","prouwgdxuxv","cub","no","null","stimuli/organized/EXEMPLAR/USED/Efeather2.jpg","","","","","memory","false","exemplar","true","","",""
"","null","html-keyboard-response","116","2.0.0","251877","prouwgdxuxv","cub","no","null","<div style=""font-size:60px; color:black;"">+</div>","","","","","","","","","","",""
"","1594","image-keyboard-response","117","2.0.0","254881","prouwgdxuxv","cub","no"," ","stimuli/organized/Novel pairs (tested)/n16bhammer.jpg","","","","","memory","false","novel","false","","",""
"","null","html-keyboard-response","118","2.0.0","255886","prouwgdxuxv","cub","no","null","<div style=""font-size:60px; color:red;"">+</div>","","","","","","","","","","",""
"","null","image-keyboard-response","119","2.0.0","258897","prouwgdxuxv","cub","no","null","stimuli/organized/EXEMPLAR/USED/Econe1.jpg","","","","","memory","false","exemplar","true","","",""
"","null","html-keyboard-response","120","2.0.0","259901","prouwgdxuxv","cub","no","null","<div style=""font-size:60px; color:black;"">+</div>","","","","","","","","","","",""
"","null","image-keyboard-response","121","2.0.0","262906","prouwgdxuxv","cub","no","null","stimuli/organized/STATE/USED/Sscanner1.JPG","","","","","memory","false","state","true","","",""
"","null","html-keyboard-response","122","2.0.0","263909","prouwgdxuxv","cub","no","null","<div style=""font-size:60px; color:black;"">+</div>","","","","","","","","","","",""
"","null","image-keyboard-response","123","2.0.0","266911","prouwgdxuxv","cub","no","null","stimuli/organized/Novel pairs (tested)/n19apickle.jpg","","","","","memory","false","novel","true","","",""
"","null","html-keyboard-response","124","2.0.0","267914","prouwgdxuxv","cub","no","null","<div style=""font-size:60px; color:black;"">+</div>","","","","","","","","","","",""
"","null","image-keyboard-response","125","2.0.0","270917","prouwgdxuxv","cub","no","null","stimuli/organized/STATE/USED/Seggs1.jpg","","","","","memory","false","state","true","","",""
"","null","html-keyboard-response","126","2.0.0","271920","prouwgdxuxv","cub","no","null","<div style=""font-size:60px; color:black;"">+</div>","","","","","","","","","","",""
"","1414","image-keyboard-response","127","2.0.0","274924","prouwgdxuxv","cub","no"," ","stimuli/organized/STATE/USED/Sscissors2.JPG","","","","","memory","true","state","true","","",""
"","null","html-keyboard-response","128","2.0.0","275927","prouwgdxuxv","cub","no","null","<div style=""font-size:60px; color:green;"">+</div>","","","","","","","","","","",""
"","null","image-keyboard-response","129","2.0.0","278931","prouwgdxuxv","cub","no","null","stimuli/organized/EXEMPLAR/USED/Egoggles1.jpg","","","","","memory","false","exemplar","true","","",""
"","null","html-keyboard-response","130","2.0.0","279933","prouwgdxuxv","cub","no","null","<div style=""font-size:60px; color:black;"">+</div>","","","","","","","","","","",""
"","null","image-keyboard-response","131","2.0.0","282938","prouwgdxuxv","cub","no","null","stimuli/organized/Novel pairs (tested)/n09apenguin.jpg","","","","","memory","false","novel","true","","",""
"","null","html-keyboard-response","132","2.0.0","283941","prouwgdxuxv","cub","no","null","<div style=""font-size:60px; color:black;"">+</div>","","","","","","","","","","",""
"","null","image-keyboard-response","133","2.0.0","286945","prouwgdxuxv","cub","no","null","stimuli/organized/Novel pairs (tested)/n20acarseat.jpg","","","","","memory","false","novel","true","","",""
"","null","html-keyboard-response","134","2.0.0","287948","prouwgdxuxv","cub","no","null","<div style=""font-size:60px; color:black;"">+</div>","","","","","","","","","","",""
"","2036","image-keyboard-response","135","2.0.0","290954","prouwgdxuxv","cub","no"," ","stimuli/organized/STATE/USED/Sbureau2.JPG","","","","","memory","false","state","false","","",""
"","null","html-keyboard-response","136","2.0.0","291957","prouwgdxuxv","cub","no","null","<div style=""font-size:60px; color:red;"">+</div>","","","","","","","","","","",""
"","null","image-keyboard-response","137","2.0.0","294963","prouwgdxuxv","cub","no","null","stimuli/organized/Novel pairs (tested)/n04ayarn.jpg","","","","","memory","false","novel","true","","",""
"","null","html-keyboard-response","138","2.0.0","295967","prouwgdxuxv","cub","no","null","<div style=""font-size:60px; color:black;"">+</div>","","","","","","","","","","",""
"","null","image-keyboard-response","139","2.0.0","298972","prouwgdxuxv","cub","no","null","stimuli/organized/STATE/USED/Sbottles1.JPG","","","","","memory","false","state","true","","",""
"","null","html-keyboard-response","140","2.0.0","299975","prouwgdxuxv","cub","no","null","<div style=""font-size:60px; color:black;"">+</div>","","","","","","","","","","",""
"","null","image-keyboard-response","141","2.0.0","302979","prouwgdxuxv","cub","no","null","stimuli/organized/STATE/USED/Sdie2.jpg","","","","","memory","false","state","true","","",""
"","null","html-keyboard-response","142","2.0.0","303983","prouwgdxuxv","cub","no","null","<div style=""font-size:60px; color:black;"">+</div>","","","","","","","","","","",""
"","2152","image-keyboard-response","143","2.0.0","306987","prouwgdxuxv","cub","no"," ","stimuli/organized/Novel pairs (tested)/n17avendingmachine.jpg","","","","","memory","false","novel","false","","",""
"","null","html-keyboard-response","144","2.0.0","307991","prouwgdxuxv","cub","no","null","<div style=""font-size:60px; color:red;"">+</div>","","","","","","","","","","",""
"","1987","image-keyboard-response","145","2.0.0","310996","prouwgdxuxv","cub","no"," ","stimuli/organized/STATE/USED/Scookies2.JPG","","","","","memory","true","state","true","","",""
"","null","html-keyboard-response","146","2.0.0","312000","prouwgdxuxv","cub","no","null","<div style=""font-size:60px; color:green;"">+</div>","","","","","","","","","","",""
"","null","image-keyboard-response","147","2.0.0","315003","prouwgdxuxv","cub","no","null","stimuli/organized/STATE/USED/Sgiftbox2.jpg","","","","","memory","false","state","true","","",""
"","null","html-keyboard-response","148","2.0.0","316006","prouwgdxuxv","cub","no","null","<div style=""font-size:60px; color:black;"">+</div>","","","","","","","","","","",""
"","null","image-keyboard-response","149","2.0.0","319010","prouwgdxuxv","cub","no","null","stimuli/organized/STATE/USED/Shairbrush1.jpg","","","","","memory","false","state","true","","",""
"","null","html-keyboard-response","150","2.0.0","320015","prouwgdxuxv","cub","no","null","<div style=""font-size:60px; color:black;"">+</div>","","","","","","","","","","",""
"","null","image-keyboard-response","151","2.0.0","323019","prouwgdxuxv","cub","no","null","stimuli/organized/EXEMPLAR/USED/Ecar1.jpg","","","","","memory","false","exemplar","true","","",""
"","null","html-keyboard-response","152","2.0.0","324022","prouwgdxuxv","cub","no","null","<div style=""font-size:60px; color:black;"">+</div>","","","","","","","","","","",""
"","null","image-keyboard-response","153","2.0.0","327027","prouwgdxuxv","cub","no","null","stimuli/organized/EXEMPLAR/USED/Ecabinet2.jpg","","","","","memory","false","exemplar","true","","",""
"","null","html-keyboard-response","154","2.0.0","328030","prouwgdxuxv","cub","no","null","<div style=""font-size:60px; color:black;"">+</div>","","","","","","","","","","",""
"","2606","image-keyboard-response","155","2.0.0","331035","prouwgdxuxv","cub","no"," ","stimuli/organized/EXEMPLAR/USED/Egrapes2.jpg","","","","","memory","true","exemplar","true","","",""
"","null","html-keyboard-response","156","2.0.0","332038","prouwgdxuxv","cub","no","null","<div style=""font-size:60px; color:green;"">+</div>","","","","","","","","","","",""
"","null","image-keyboard-response","157","2.0.0","335041","prouwgdxuxv","cub","no","null","stimuli/organized/STATE/USED/Slaptop1.JPG","","","","","memory","false","state","true","","",""
"","null","html-keyboard-response","158","2.0.0","336044","prouwgdxuxv","cub","no","null","<div style=""font-size:60px; color:black;"">+</div>","","","","","","","","","","",""
"","2564","image-keyboard-response","159","2.0.0","339047","prouwgdxuxv","cub","no"," ","stimuli/organized/Novel pairs (tested)/n12bwatch.jpg","","","","","memory","true","novel","true","","",""
"","null","html-keyboard-response","160","2.0.0","340051","prouwgdxuxv","cub","no","null","<div style=""font-size:60px; color:green;"">+</div>","","","","","","","","","","",""
"","null","image-keyboard-response","161","2.0.0","343056","prouwgdxuxv","cub","no","null","stimuli/organized/STATE/USED/Sdryer2.jpg","","","","","memory","false","state","true","","",""
"","null","html-keyboard-response","162","2.0.0","344059","prouwgdxuxv","cub","no","null","<div style=""font-size:60px; color:black;"">+</div>","","","","","","","","","","",""
"","null","image-keyboard-response","163","2.0.0","347064","prouwgdxuxv","cub","no","null","stimuli/organized/Novel pairs (tested)/n06acane.jpg","","","","","memory","false","novel","true","","",""
"","null","html-keyboard-response","164","2.0.0","348068","prouwgdxuxv","cub","no","null","<div style=""font-size:60px; color:black;"">+</div>","","","","","","","","","","",""
"","null","image-keyboard-response","165","2.0.0","351073","prouwgdxuxv","cub","no","null","stimuli/organized/STATE/USED/Sapplesgreenbasket1.jpg","","","","","memory","false","state","true","","",""
"","10678","html-button-response","166","2.0.0","361755","prouwgdxuxv","cub","no","0","<p>You have completed the study phase.</p><p>Take a short break. Press the button below when you are ready to continue.</p>","","","","","","","","","","",""
"","12269","html-keyboard-response","167","2.0.0","374025","prouwgdxuxv","cub","no"," ","<p>You will now be shown pairs of images.</p><p>Select the image you remember seeing during the study phase.</p><p>Focus on accuracy, not speed.</p><p>Press any key to begin.</p>","","","","","","","","","","",""
"","3043","html-button-response","168","2.0.0","377073","prouwgdxuxv","cub","no","1","Which of these items did you see earlier?","","","","","test","","state","true","stimuli/organized/STATE/USED/Sbox2.jpg","stimuli/organized/STATE/USED/Sbox1.jpg","1"
"","1674","html-button-response","169","2.0.0","378756","prouwgdxuxv","cub","no","0","Which of these items did you see earlier?","","","","","test","","state","true","stimuli/organized/STATE/USED/Scookies2.JPG","stimuli/organized/STATE/USED/Scookies1.JPG","0"
"","1465","html-button-response","170","2.0.0","380222","prouwgdxuxv","cub","no","1","Which of these items did you see earlier?","","","","","test","","state","true","stimuli/organized/STATE/USED/Sbooks1.JPG","stimuli/organized/STATE/USED/Sbooks2.JPG","1"
"","2258","html-button-response","171","2.0.0","382482","prouwgdxuxv","cub","no","0","Which of these items did you see earlier?","","","","","test","","state","true","stimuli/organized/STATE/USED/Sdishes2.JPG","stimuli/organized/STATE/USED/Sdishes1.JPG","0"
"","2458","html-button-response","172","2.0.0","384941","prouwgdxuxv","cub","no","1","Which of these items did you see earlier?","","","","","test","","state","true","stimuli/organized/STATE/USED/Sgiftbox2.jpg","stimuli/organized/STATE/USED/Sgiftbox1.jpg","1"
"","7797","html-button-response","173","2.0.0","392739","prouwgdxuxv","cub","no","0","Which of these items did you see earlier?","","","","","test","","state","true","stimuli/organized/STATE/USED/Sphone2.JPG","stimuli/organized/STATE/USED/Sphone1.JPG","0"
"","7723","html-button-response","174","2.0.0","400464","prouwgdxuxv","cub","no","1","Which of these items did you see earlier?","","","","","test","","state","true","stimuli/organized/STATE/USED/Scrayons1.jpg","stimuli/organized/STATE/USED/Scrayons2.jpg","1"
"","8412","html-button-response","175","2.0.0","408877","prouwgdxuxv","cub","no","0","Which of these items did you see earlier?","","","","","test","","exemplar","true","stimuli/organized/EXEMPLAR/USED/Egame1.jpg","stimuli/organized/EXEMPLAR/USED/Egame2.jpg","0"
"","1219","html-button-response","176","2.0.0","410097","prouwgdxuxv","cub","no","1","Which of these items did you see earlier?","","","","","test","","exemplar","true","stimuli/organized/EXEMPLAR/USED/Ecalculator2.jpg","stimuli/organized/EXEMPLAR/USED/Ecalculator1.jpg","1"
"","1649","html-button-response","177","2.0.0","411748","prouwgdxuxv","cub","no","1","Which of these items did you see earlier?","","","","","test","","state","true","stimuli/organized/STATE/USED/Sbottles1.JPG","stimuli/organized/STATE/USED/Sbottles2.JPG","1"
"","5527","html-button-response","178","2.0.0","417276","prouwgdxuxv","cub","no","0","Which of these items did you see earlier?","","","","","test","","state","true","stimuli/organized/STATE/USED/Sdie2.jpg","stimuli/organized/STATE/USED/Sdie1.jpg","0"
"","1628","html-button-response","179","2.0.0","418905","prouwgdxuxv","cub","no","0","Which of these items did you see earlier?","","","","","test","","state","true","stimuli/organized/STATE/USED/Sbureau2.JPG","stimuli/organized/STATE/USED/Sbureau1.JPG","0"
"","1107","html-button-response","180","2.0.0","420013","prouwgdxuxv","cub","no","1","Which of these items did you see earlier?","","","","","test","","state","true","stimuli/organized/STATE/USED/Scoffeemaker1.JPG","stimuli/organized/STATE/USED/Scoffeemaker2.JPG","1"
"","1941","html-button-response","181","2.0.0","421955","prouwgdxuxv","cub","no","0","Which of these items did you see earlier?","","","","","test","","exemplar","true","stimuli/organized/EXEMPLAR/USED/Ecabinet2.jpg","stimuli/organized/EXEMPLAR/USED/Ecabinet1.jpg","0"
"","5866","html-button-response","182","2.0.0","427822","prouwgdxuxv","cub","no","0","Which of these items did you see earlier?","","","","","test","","state","true","stimuli/organized/STATE/USED/Sbrushes2.jpg","stimuli/organized/STATE/USED/Sbrushes1.jpg","0"
"","1257","html-button-response","183","2.0.0","429080","prouwgdxuxv","cub","no","1","Which of these items did you see earlier?","","","","","test","","exemplar","true","stimuli/organized/EXEMPLAR/USED/Efeather2.jpg","stimuli/organized/EXEMPLAR/USED/Efeather1.jpg","1"
"","1224","html-button-response","184","2.0.0","430305","prouwgdxuxv","cub","no","1","Which of these items did you see earlier?","","","","","test","","novel","true","stimuli/organized/Novel pairs (tested)/n01bcoin.jpg","stimuli/organized/Novel pairs (tested)/n01aladybug.jpg","1"
"","1419","html-button-response","185","2.0.0","431725","prouwgdxuxv","cub","no","1","Which of these items did you see earlier?","","","","","test","","exemplar","true","stimuli/organized/EXEMPLAR/USED/Ebracelet2.jpg","stimuli/organized/EXEMPLAR/USED/Ebracelet1.jpg","1"
"","1353","html-button-response","186","2.0.0","433079","prouwgdxuxv","cub","no","0","Which of these items did you see earlier?","","","","","test","","exemplar","true","stimuli/organized/EXEMPLAR/USED/Econe1.jpg","stimuli/organized/EXEMPLAR/USED/Econe2.jpg","0"
"","3807","html-button-response","187","2.0.0","436893","prouwgdxuxv","cub","no","1","Which of these items did you see earlier?","","","","","test","","exemplar","true","stimuli/organized/EXEMPLAR/USED/Eframe2.jpg","stimuli/organized/EXEMPLAR/USED/Eframe1.jpg","1"
"","877","html-button-response","188","2.0.0","437772","prouwgdxuxv","cub","no","1","Which of these items did you see earlier?","","","","","test","","novel","true","stimuli/organized/Novel pairs (tested)/n18bsnail.jpg","stimuli/organized/Novel pairs (tested)/n18apretzel.jpg","1"
"","1667","html-button-response","189","2.0.0","439440","prouwgdxuxv","cub","no","1","Which of these items did you see earlier?","","","","","test","","state","true","stimuli/organized/STATE/USED/Slaptop1.JPG","stimuli/organized/STATE/USED/Slaptop2.JPG","1"
"","1316","html-button-response","190","2.0.0","440757","prouwgdxuxv","cub","no","1","Which of these items did you see earlier?","","","","","test","","novel","true","stimuli/organized/Novel pairs (tested)/n08bpaperclip.jpg","stimuli/organized/Novel pairs (tested)/n08aoven.jpg","1"
"","1907","html-button-response","191","2.0.0","442665","prouwgdxuxv","cub","no","0","Which of these items did you see earlier?","","","","","test","","exemplar","true","stimuli/organized/EXEMPLAR/USED/Ecamera2.jpg","stimuli/organized/EXEMPLAR/USED/Ecamera1.jpg","0"
"","1318","html-button-response","192","2.0.0","443985","prouwgdxuxv","cub","no","0","Which of these items did you see earlier?","","","","","test","","exemplar","true","stimuli/organized/EXEMPLAR/USED/Efan1.jpg","stimuli/organized/EXEMPLAR/USED/Efan2.jpg","0"
"","1021","html-button-response","193","2.0.0","445007","prouwgdxuxv","cub","no","1","Which of these items did you see earlier?","","","","","test","","novel","true","stimuli/organized/Novel pairs (tested)/n19apickle.jpg","stimuli/organized/Novel pairs (tested)/n19bhairbrush.jpg","1"
"","1229","html-button-response","194","2.0.0","446237","prouwgdxuxv","cub","no","0","Which of these items did you see earlier?","","","","","test","","novel","true","stimuli/organized/Novel pairs (tested)/n20acarseat.jpg","stimuli/organized/Novel pairs (tested)/n20bshelf.jpg","0"
"","1009","html-button-response","195","2.0.0","447247","prouwgdxuxv","cub","no","0","Which of these items did you see earlier?","","","","","test","","novel","true","stimuli/organized/Novel pairs (tested)/n12bwatch.jpg","stimuli/organized/Novel pairs (tested)/n12atelescope.jpg","0"
"","1184","html-button-response","196","2.0.0","448432","prouwgdxuxv","cub","no","0","Which of these items did you see earlier?","","","","","test","","novel","true","stimuli/organized/Novel pairs (tested)/n17avendingmachine.jpg","stimuli/organized/Novel pairs (tested)/n17bweddingdress.jpg","0"
"","2485","html-button-response","197","2.0.0","450919","prouwgdxuxv","cub","no","0","Which of these items did you see earlier?","","","","","test","","state","true","stimuli/organized/STATE/USED/Sdryer2.jpg","stimuli/organized/STATE/USED/Sdryer1.jpg","0"
"","2114","html-button-response","198","2.0.0","453034","prouwgdxuxv","cub","no","0","Which of these items did you see earlier?","","","","","test","","exemplar","true","stimuli/organized/EXEMPLAR/USED/Echocolatebar2.jpg","stimuli/organized/EXEMPLAR/USED/Echocolatebar1.jpg","0"
"","1254","html-button-response","199","2.0.0","454289","prouwgdxuxv","cub","no","0","Which of these items did you see earlier?","","","","","test","","state","true","stimuli/organized/STATE/USED/Sscissors2.JPG","stimuli/organized/STATE/USED/Sscissors1.JPG","0"
"","2191","html-button-response","200","2.0.0","456481","prouwgdxuxv","cub","no","0","Which of these items did you see earlier?","","","","","test","","state","true","stimuli/organized/STATE/USED/Sjuiceglass1.JPG","stimuli/organized/STATE/USED/Sjuiceglass2.JPG","0"
"","1209","html-button-response","201","2.0.0","457692","prouwgdxuxv","cub","no","1","Which of these items did you see earlier?","","","","","test","","exemplar","true","stimuli/organized/EXEMPLAR/USED/Ebasket1.jpg","stimuli/organized/EXEMPLAR/USED/Ebasket2.jpg","1"
"","1280","html-button-response","202","2.0.0","458973","prouwgdxuxv","cub","no","0","Which of these items did you see earlier?","","","","","test","","novel","true","stimuli/organized/Novel pairs (tested)/n04ayarn.jpg","stimuli/organized/Novel pairs (tested)/n04bbandaid.jpg","0"
"","2926","html-button-response","203","2.0.0","461900","prouwgdxuxv","cub","no","1","Which of these items did you see earlier?","","","","","test","","state","false","stimuli/organized/STATE/USED/Sflask1.jpg","stimuli/organized/STATE/USED/Sflask2.jpg","0"
"","1436","html-button-response","204","2.0.0","463338","prouwgdxuxv","cub","no","0","Which of these items did you see earlier?","","","","","test","","novel","true","stimuli/organized/Novel pairs (tested)/n02bsafetypin.jpg","stimuli/organized/Novel pairs (tested)/n02aaxe.jpg","0"
"","7417","html-button-response","205","2.0.0","470756","prouwgdxuxv","cub","no","1","Which of these items did you see earlier?","","","","","test","","state","false","stimuli/organized/STATE/USED/Sabacus2.jpg","stimuli/organized/STATE/USED/Sabacus1.jpg","0"
"","1045","html-button-response","206","2.0.0","471802","prouwgdxuxv","cub","no","1","Which of these items did you see earlier?","","","","","test","","exemplar","true","stimuli/organized/EXEMPLAR/USED/Egoggles1.jpg","stimuli/organized/EXEMPLAR/USED/Egoggles2.jpg","1"
"","1613","html-button-response","207","2.0.0","473417","prouwgdxuxv","cub","no","0","Which of these items did you see earlier?","","","","","test","","state","true","stimuli/organized/STATE/USED/Sdresser2.jpg","stimuli/organized/STATE/USED/Sdresser1.jpg","0"
"","2332","html-button-response","208","2.0.0","475750","prouwgdxuxv","cub","no","1","Which of these items did you see earlier?","","","","","test","","novel","true","stimuli/organized/Novel pairs (tested)/n15aspiderweb.jpg","stimuli/organized/Novel pairs (tested)/n15bfootball.jpg","1"
"","1456","html-button-response","209","2.0.0","477207","prouwgdxuxv","cub","no","1","Which of these items did you see earlier?","","","","","test","","state","true","stimuli/organized/STATE/USED/Seggs1.jpg","stimuli/organized/STATE/USED/Seggs2.jpg","1"
"","1846","html-button-response","210","2.0.0","479054","prouwgdxuxv","cub","no","1","Which of these items did you see earlier?","","","","","test","","state","true","stimuli/organized/STATE/USED/Sgrinder2.jpg","stimuli/organized/STATE/USED/Sgrinder1.jpg","1"
"","1578","html-button-response","211","2.0.0","480633","prouwgdxuxv","cub","no","0","Which of these items did you see earlier?","","","","","test","","state","true","stimuli/organized/STATE/USED/Sbreadbox2.JPG","stimuli/organized/STATE/USED/Sbreadbox1.JPG","0"
"","938","html-button-response","212","2.0.0","481572","prouwgdxuxv","cub","no","0","Which of these items did you see earlier?","","","","","test","","exemplar","true","stimuli/organized/EXEMPLAR/USED/Egrapes2.jpg","stimuli/organized/EXEMPLAR/USED/Egrapes1.jpg","0"
"","1393","html-button-response","213","2.0.0","482967","prouwgdxuxv","cub","no","0","Which of these items did you see earlier?","","","","","test","","exemplar","true","stimuli/organized/EXEMPLAR/USED/Ebicycle2.jpg","stimuli/organized/EXEMPLAR/USED/Ebicycle1.jpg","0"
"","1554","html-button-response","214","2.0.0","484522","prouwgdxuxv","cub","no","0","Which of these items did you see earlier?","","","","","test","","exemplar","true","stimuli/organized/EXEMPLAR/USED/Eglobe1.jpg","stimuli/organized/EXEMPLAR/USED/Eglobe2.jpg","0"
"","983","html-button-response","215","2.0.0","485506","prouwgdxuxv","cub","no","0","Which of these items did you see earlier?","","","","","test","","novel","true","stimuli/organized/Novel pairs (tested)/n10bturkey.jpg","stimuli/organized/Novel pairs (tested)/n10awindmill.jpg","0"
"","1731","html-button-response","216","2.0.0","487238","prouwgdxuxv","cub","no","1","Which of these items did you see earlier?","","","","","test","","state","true","stimuli/organized/STATE/USED/Sapplesgreenbasket1.jpg","stimuli/organized/STATE/USED/Sapplesgreenbasket2.jpg","1"
"","1490","html-button-response","217","2.0.0","488730","prouwgdxuxv","cub","no","0","Which of these items did you see earlier?","","","","","test","","exemplar","true","stimuli/organized/EXEMPLAR/USED/Ebell1.jpg","stimuli/organized/EXEMPLAR/USED/Ebell2.jpg","0"
"","1425","html-button-response","218","2.0.0","490156","prouwgdxuxv","cub","no","1","Which of these items did you see earlier?","","","","","test","","novel","true","stimuli/organized/Novel pairs (tested)/n11abatteries.jpg","stimuli/organized/Novel pairs (tested)/n11bsock.jpg","1"
"","2696","html-button-response","219","2.0.0","492853","prouwgdxuxv","cub","no","0","Which of these items did you see earlier?","","","","","test","","novel","true","stimuli/organized/Novel pairs (tested)/n05abarrel.jpg","stimuli/organized/Novel pairs (tested)/n05bcactus.jpg","0"
"","8548","html-button-response","220","2.0.0","501404","prouwgdxuxv","cub","no","0","Which of these items did you see earlier?","","","","","test","","state","true","stimuli/organized/STATE/USED/Scontainer1.JPG","stimuli/organized/STATE/USED/Scontainer2.JPG","0"
"","1167","html-button-response","221","2.0.0","502573","prouwgdxuxv","cub","no","1","Which of these items did you see earlier?","","","","","test","","state","true","stimuli/organized/STATE/USED/Sdonut1.jpg","stimuli/organized/STATE/USED/Sdonut2.jpg","1"
"","3285","html-button-response","222","2.0.0","505860","prouwgdxuxv","cub","no","1","Which of these items did you see earlier?","","","","","test","","state","false","stimuli/organized/STATE/USED/Sbriefcase2.jpg","stimuli/organized/STATE/USED/Sbriefcase1.jpg","0"
"","1495","html-button-response","223","2.0.0","507356","prouwgdxuxv","cub","no","0","Which of these items did you see earlier?","","","","","test","","novel","true","stimuli/organized/Novel pairs (tested)/n16bhammer.jpg","stimuli/organized/Novel pairs (tested)/n16abananas.jpg","0"
"","1715","html-button-response","224","2.0.0","509072","prouwgdxuxv","cub","no","1","Which of these items did you see earlier?","","","","","test","","state","true","stimuli/organized/STATE/USED/Sgiftbag2.jpg","stimuli/organized/STATE/USED/Sgiftbag1.jpg","1"
"","2204","html-button-response","225","2.0.0","511278","prouwgdxuxv","cub","no","1","Which of these items did you see earlier?","","","","","test","","state","true","stimuli/organized/STATE/USED/Spotpan2.JPG","stimuli/organized/STATE/USED/Spotpan1.JPG","1"
"","1193","html-button-response","226","2.0.0","512473","prouwgdxuxv","cub","no","1","Which of these items did you see earlier?","","","","","test","","state","true","stimuli/organized/STATE/USED/Sbelt1.jpg","stimuli/organized/STATE/USED/Sbelt2.jpg","1"
"","998","html-button-response","227","2.0.0","513472","prouwgdxuxv","cub","no","1","Which of these items did you see earlier?","","","","","test","","novel","true","stimuli/organized/Novel pairs (tested)/n06acane.jpg","stimuli/organized/Novel pairs (tested)/n06blipstick.jpg","1"
"","1334","html-button-response","228","2.0.0","514807","prouwgdxuxv","cub","no","1","Which of these items did you see earlier?","","","","","test","","state","true","stimuli/organized/STATE/USED/Sscanner1.JPG","stimuli/organized/STATE/USED/Sscanner2.JPG","1"
"","1381","html-button-response","229","2.0.0","516190","prouwgdxuxv","cub","no","0","Which of these items did you see earlier?","","","","","test","","novel","true","stimuli/organized/Novel pairs (tested)/n13bdustpan.jpg","stimuli/organized/Novel pairs (tested)/n13ablueberries.jpg","0"
"","2114","html-button-response","230","2.0.0","518305","prouwgdxuxv","cub","no","0","Which of these items did you see earlier?","","","","","test","","novel","true","stimuli/organized/Novel pairs (tested)/n03bbagel.jpg","stimuli/organized/Novel pairs (tested)/n03acamel.jpg","0"
"","2872","html-button-response","231","2.0.0","521179","prouwgdxuxv","cub","no","0","Which of these items did you see earlier?","","","","","test","","exemplar","true","stimuli/organized/EXEMPLAR/USED/Echisel2.jpg","stimuli/organized/EXEMPLAR/USED/Echisel1.jpg","0"
"","3645","html-button-response","232","2.0.0","524825","prouwgdxuxv","cub","no","1","Which of these items did you see earlier?","","","","","test","","state","true","stimuli/organized/STATE/USED/Spie1.JPG","stimuli/organized/STATE/USED/Spie2.JPG","1"
"","6233","html-button-response","233","2.0.0","531060","prouwgdxuxv","cub","no","1","Which of these items did you see earlier?","","","","","test","","state","true","stimuli/organized/STATE/USED/Schinesefoodbox1.jpg","stimuli/organized/STATE/USED/Schinesefoodbox2.jpg","1"
"","1111","html-button-response","234","2.0.0","532172","prouwgdxuxv","cub","no","1","Which of these items did you see earlier?","","","","","test","","state","true","stimuli/organized/STATE/USED/Sbabytoy1.JPG","stimuli/organized/STATE/USED/Sbabytoy2.JPG","1"
"","1210","html-button-response","235","2.0.0","533384","prouwgdxuxv","cub","no","1","Which of these items did you see earlier?","","","","","test","","novel","true","stimuli/organized/Novel pairs (tested)/n09apenguin.jpg","stimuli/organized/Novel pairs (tested)/n09bsaddle.jpg","1"
"","1637","html-button-response","236","2.0.0","535022","prouwgdxuxv","cub","no","0","Which of these items did you see earlier?","","","","","test","","state","true","stimuli/organized/STATE/USED/Shairbrush1.jpg","stimuli/organized/STATE/USED/Shairbrush2.jpg","0"
"","3232","html-button-response","237","2.0.0","538255","prouwgdxuxv","cub","no","1","Which of these items did you see earlier?","","","","","test","","exemplar","true","stimuli/organized/EXEMPLAR/USED/Ecar1.jpg","stimuli/organized/EXEMPLAR/USED/Ecar2.jpg","1"
"","1043","html-button-response","238","2.0.0","539300","prouwgdxuxv","cub","no","1","Which of these items did you see earlier?","","","","","test","","exemplar","true","stimuli/organized/EXEMPLAR/USED/Edispenser1.jpg","stimuli/organized/EXEMPLAR/USED/Edispenser2.jpg","1"
"","2089","html-button-response","239","2.0.0","541389","prouwgdxuxv","cub","no","0","Which of these items did you see earlier?","","","","","test","","state","true","stimuli/organized/STATE/USED/Sdrum2.jpg","stimuli/organized/STATE/USED/Sdrum1.jpg","0"
"","1253","html-button-response","240","2.0.0","542643","prouwgdxuxv","cub","no","1","Which of these items did you see earlier?","","","","","test","","novel","true","stimuli/organized/Novel pairs (tested)/n14bgolfball.jpg","stimuli/organized/Novel pairs (tested)/n14acigarette.jpg","1"
"","2262","html-button-response","241","2.0.0","544906","prouwgdxuxv","cub","no","1","Which of these items did you see earlier?","","","","","test","","state","true","stimuli/organized/STATE/USED/Sfiretrucktoy1.jpg","stimuli/organized/STATE/USED/Sfiretrucktoy2.jpg","1"
"","3022","html-button-response","242","2.0.0","547929","prouwgdxuxv","cub","no","1","Which of these items did you see earlier?","","","","","test","","exemplar","true","stimuli/organized/EXEMPLAR/USED/Ebread1.jpg","stimuli/organized/EXEMPLAR/USED/Ebread2.jpg","1"
"","1092","html-button-response","243","2.0.0","549023","prouwgdxuxv","cub","no","1","Which of these items did you see earlier?","","","","","test","","novel","true","stimuli/organized/Novel pairs (tested)/n07apotato.jpg","stimuli/organized/Novel pairs (tested)/n07bswimmingpool.jpg","1"
"","10956","survey-html-form","244","2.0.0","559984","prouwgdxuxv","cub","no","{""age"":""22"",""gender"":""male"",""memory_experiment_experience"":""yes""}","","","","","","","","","","","",""
"","21798","survey-text","245","2.0.0","581786","prouwgdxuxv","cub","no","{""task_guess"":""I think it is about visual memory recall""}","","","","","","","","","","","",""
"","2641","survey-text","246","2.0.0","584428","prouwgdxuxv","cub","no","{""technical_issues_question"":""no""}","","","","","","","","","","","",""
