"success","rt","trial_type","trial_index","plugin_version","time_elapsed","random_id","participant","technical_issues","response","stimulus","timeout","failed_images","failed_audio","failed_video","trial_phase","is_repeat","test_type","correct","old_image","new_image","correct_position"
"true","1054","fullscreen","0","null","2059","prxu5zghj5w","sheep","nopee","","","","","","","","","","","","",""
"","3793","survey-text","1","2.0.0","5857","prxu5zghj5w","sheep","nopee","{""participant_id"":""sheep""}","","","","","","","","","","","",""
"","8516","html-keyboard-response","2","2.0.0","14375","prxu5zghj5w","sheep","nopee"," ","
      <p>In this experiment, a series of objects will be displayed.</p>
      <p>Try to memorize as much as possible about the objects.</p>
      <p>If the image is a <strong> repeat</strong>, press the SPACEBAR.</p>
      <p>Press any key to begin.</p>
    ","","","","","","","","","","",""
"true","","preload","3","2.0.0","14760","prxu5zghj5w","sheep","nopee","","","false","[]","[]","[]","","","","","","",""
"","null","html-keyboard-response","4","2.0.0","15763","prxu5zghj5w","sheep","nopee","null","<div style=""font-size:60px;"">+</div>","","","","","","","","","","",""
"","null","image-keyboard-response","5","2.0.0","18769","prxu5zghj5w","sheep","nopee","null","stimuli/organized/STATE/USED/Shairbrush2.jpg","","","","","memory","false","state","true","","",""
"","null","html-keyboard-response","6","2.0.0","19772","prxu5zghj5w","sheep","nopee","null","<div style=""font-size:60px; color:black;"">+</div>","","","","","","","","","","",""
"","null","image-keyboard-response","7","2.0.0","22776","prxu5zghj5w","sheep","nopee","null","stimuli/organized/EXEMPLAR/USED/Echisel2.jpg","","","","","memory","false","exemplar","true","","",""
"","null","html-keyboard-response","8","2.0.0","23780","prxu5zghj5w","sheep","nopee","null","<div style=""font-size:60px; color:black;"">+</div>","","","","","","","","","","",""
"","null","image-keyboard-response","9","2.0.0","26784","prxu5zghj5w","sheep","nopee","null","stimuli/organized/STATE/USED/Sdishes1.JPG","","","","","memory","false","state","true","","",""
"","null","html-keyboard-response","10","2.0.0","27787","prxu5zghj5w","sheep","nopee","null","<div style=""font-size:60px; color:black;"">+</div>","","","","","","","","","","",""
"","null","image-keyboard-response","11","2.0.0","30791","prxu5zghj5w","sheep","nopee","null","stimuli/organized/EXEMPLAR/USED/Econe2.jpg","","","","","memory","false","exemplar","true","","",""
"","null","html-keyboard-response","12","2.0.0","31794","prxu5zghj5w","sheep","nopee","null","<div style=""font-size:60px; color:black;"">+</div>","","","","","","","","","","",""
"","null","image-keyboard-response","13","2.0.0","34797","prxu5zghj5w","sheep","nopee","null","stimuli/organized/STATE/USED/Scrayons1.jpg","","","","","memory","false","state","true","","",""
"","null","html-keyboard-response","14","2.0.0","35799","prxu5zghj5w","sheep","nopee","null","<div style=""font-size:60px; color:black;"">+</div>","","","","","","","","","","",""
"","null","image-keyboard-response","15","2.0.0","38803","prxu5zghj5w","sheep","nopee","null","stimuli/organized/EXEMPLAR/USED/Eframe1.jpg","","","","","memory","false","exemplar","true","","",""
"","null","html-keyboard-response","16","2.0.0","39805","prxu5zghj5w","sheep","nopee","null","<div style=""font-size:60px; color:black;"">+</div>","","","","","","","","","","",""
"","null","image-keyboard-response","17","2.0.0","42808","prxu5zghj5w","sheep","nopee","null","stimuli/organized/STATE/USED/Sjuiceglass1.JPG","","","","","memory","false","state","true","","",""
"","null","html-keyboard-response","18","2.0.0","43812","prxu5zghj5w","sheep","nopee","null","<div style=""font-size:60px; color:black;"">+</div>","","","","","","","","","","",""
"","null","image-keyboard-response","19","2.0.0","46815","prxu5zghj5w","sheep","nopee","null","stimuli/organized/STATE/USED/Sdonut1.jpg","","","","","memory","false","state","true","","",""
"","null","html-keyboard-response","20","2.0.0","47818","prxu5zghj5w","sheep","nopee","null","<div style=""font-size:60px; color:black;"">+</div>","","","","","","","","","","",""
"","null","image-keyboard-response","21","2.0.0","50822","prxu5zghj5w","sheep","nopee","null","stimuli/organized/STATE/USED/Sbooks1.JPG","","","","","memory","false","state","true","","",""
"","null","html-keyboard-response","22","2.0.0","51825","prxu5zghj5w","sheep","nopee","null","<div style=""font-size:60px; color:black;"">+</div>","","","","","","","","","","",""
"","null","image-keyboard-response","23","2.0.0","54829","prxu5zghj5w","sheep","nopee","null","stimuli/organized/STATE/USED/Sdrum1.jpg","","","","","memory","false","state","true","","",""
"","null","html-keyboard-response","24","2.0.0","55832","prxu5zghj5w","sheep","nopee","null","<div style=""font-size:60px; color:black;"">+</div>","","","","","","","","","","",""
"","null","image-keyboard-response","25","2.0.0","58835","prxu5zghj5w","sheep","nopee","null","stimuli/organized/Novel pairs (tested)/n17bweddingdress.jpg","","","","","memory","false","novel","true","","",""
"","null","html-keyboard-response","26","2.0.0","59839","prxu5zghj5w","sheep","nopee","null","<div style=""font-size:60px; color:black;"">+</div>","","","","","","","","","","",""
"","null","image-keyboard-response","27","2.0.0","62843","prxu5zghj5w","sheep","nopee","null","stimuli/organized/STATE/USED/Sbottles1.JPG","","","","","memory","false","state","true","","",""
"","null","html-keyboard-response","28","2.0.0","63846","prxu5zghj5w","sheep","nopee","null","<div style=""font-size:60px; color:black;"">+</div>","","","","","","","","","","",""
"","null","image-keyboard-response","29","2.0.0","66850","prxu5zghj5w","sheep","nopee","null","stimuli/organized/STATE/USED/Scookies2.JPG","","","","","memory","false","state","true","","",""
"","null","html-keyboard-response","30","2.0.0","67853","prxu5zghj5w","sheep","nopee","null","<div style=""font-size:60px; color:black;"">+</div>","","","","","","","","","","",""
"","null","image-keyboard-response","31","2.0.0","70856","prxu5zghj5w","sheep","nopee","null","stimuli/organized/STATE/USED/Sscanner2.JPG","","","","","memory","false","state","true","","",""
"","null","html-keyboard-response","32","2.0.0","71858","prxu5zghj5w","sheep","nopee","null","<div style=""font-size:60px; color:black;"">+</div>","","","","","","","","","","",""
"","null","image-keyboard-response","33","2.0.0","74861","prxu5zghj5w","sheep","nopee","null","stimuli/organized/EXEMPLAR/USED/Ecar2.jpg","","","","","memory","false","exemplar","true","","",""
"","null","html-keyboard-response","34","2.0.0","75864","prxu5zghj5w","sheep","nopee","null","<div style=""font-size:60px; color:black;"">+</div>","","","","","","","","","","",""
"","null","image-keyboard-response","35","2.0.0","78867","prxu5zghj5w","sheep","nopee","null","stimuli/organized/STATE/USED/Sbrushes2.jpg","","","","","memory","false","state","true","","",""
"","null","html-keyboard-response","36","2.0.0","79870","prxu5zghj5w","sheep","nopee","null","<div style=""font-size:60px; color:black;"">+</div>","","","","","","","","","","",""
"","null","image-keyboard-response","37","2.0.0","82874","prxu5zghj5w","sheep","nopee","null","stimuli/organized/STATE/USED/Sscissors1.JPG","","","","","memory","false","state","true","","",""
"","null","html-keyboard-response","38","2.0.0","83876","prxu5zghj5w","sheep","nopee","null","<div style=""font-size:60px; color:black;"">+</div>","","","","","","","","","","",""
"","null","image-keyboard-response","39","2.0.0","86880","prxu5zghj5w","sheep","nopee","null","stimuli/organized/STATE/USED/Sbureau1.JPG","","","","","memory","false","state","true","","",""
"","null","html-keyboard-response","40","2.0.0","87882","prxu5zghj5w","sheep","nopee","null","<div style=""font-size:60px; color:black;"">+</div>","","","","","","","","","","",""
"","null","image-keyboard-response","41","2.0.0","90886","prxu5zghj5w","sheep","nopee","null","stimuli/organized/Novel pairs (tested)/n10bturkey.jpg","","","","","memory","false","novel","true","","",""
"","null","html-keyboard-response","42","2.0.0","91889","prxu5zghj5w","sheep","nopee","null","<div style=""font-size:60px; color:black;"">+</div>","","","","","","","","","","",""
"","null","image-keyboard-response","43","2.0.0","94891","prxu5zghj5w","sheep","nopee","null","stimuli/organized/STATE/USED/Spotpan2.JPG","","","","","memory","false","state","true","","",""
"","null","html-keyboard-response","44","2.0.0","95894","prxu5zghj5w","sheep","nopee","null","<div style=""font-size:60px; color:black;"">+</div>","","","","","","","","","","",""
"","null","image-keyboard-response","45","2.0.0","98898","prxu5zghj5w","sheep","nopee","null","stimuli/organized/STATE/USED/Spie2.JPG","","","","","memory","false","state","true","","",""
"","null","html-keyboard-response","46","2.0.0","99901","prxu5zghj5w","sheep","nopee","null","<div style=""font-size:60px; color:black;"">+</div>","","","","","","","","","","",""
"","null","image-keyboard-response","47","2.0.0","102905","prxu5zghj5w","sheep","nopee","null","stimuli/organized/STATE/USED/Sbox1.jpg","","","","","memory","false","state","true","","",""
"","null","html-keyboard-response","48","2.0.0","103907","prxu5zghj5w","sheep","nopee","null","<div style=""font-size:60px; color:black;"">+</div>","","","","","","","","","","",""
"","null","image-keyboard-response","49","2.0.0","106911","prxu5zghj5w","sheep","nopee","null","stimuli/organized/STATE/USED/Sbelt2.jpg","","","","","memory","false","state","true","","",""
"","null","html-keyboard-response","50","2.0.0","107913","prxu5zghj5w","sheep","nopee","null","<div style=""font-size:60px; color:black;"">+</div>","","","","","","","","","","",""
"","null","image-keyboard-response","51","2.0.0","110916","prxu5zghj5w","sheep","nopee","null","stimuli/organized/STATE/USED/Seggs2.jpg","","","","","memory","false","state","true","","",""
"","null","html-keyboard-response","52","2.0.0","111918","prxu5zghj5w","sheep","nopee","null","<div style=""font-size:60px; color:black;"">+</div>","","","","","","","","","","",""
"","null","image-keyboard-response","53","2.0.0","114922","prxu5zghj5w","sheep","nopee","null","stimuli/organized/EXEMPLAR/USED/Eglobe2.jpg","","","","","memory","false","exemplar","true","","",""
"","null","html-keyboard-response","54","2.0.0","115925","prxu5zghj5w","sheep","nopee","null","<div style=""font-size:60px; color:black;"">+</div>","","","","","","","","","","",""
"","null","image-keyboard-response","55","2.0.0","118928","prxu5zghj5w","sheep","nopee","null","stimuli/organized/STATE/USED/Sflask1.jpg","","","","","memory","false","state","true","","",""
"","null","html-keyboard-response","56","2.0.0","119931","prxu5zghj5w","sheep","nopee","null","<div style=""font-size:60px; color:black;"">+</div>","","","","","","","","","","",""
"","null","image-keyboard-response","57","2.0.0","122935","prxu5zghj5w","sheep","nopee","null","stimuli/organized/Novel pairs (tested)/n08aoven.jpg","","","","","memory","false","novel","true","","",""
"","null","html-keyboard-response","58","2.0.0","123938","prxu5zghj5w","sheep","nopee","null","<div style=""font-size:60px; color:black;"">+</div>","","","","","","","","","","",""
"","null","image-keyboard-response","59","2.0.0","126942","prxu5zghj5w","sheep","nopee","null","stimuli/organized/STATE/USED/Sdie2.jpg","","","","","memory","false","state","true","","",""
"","null","html-keyboard-response","60","2.0.0","127945","prxu5zghj5w","sheep","nopee","null","<div style=""font-size:60px; color:black;"">+</div>","","","","","","","","","","",""
"","null","image-keyboard-response","61","2.0.0","130949","prxu5zghj5w","sheep","nopee","null","stimuli/organized/Novel pairs (tested)/n09apenguin.jpg","","","","","memory","false","novel","true","","",""
"","null","html-keyboard-response","62","2.0.0","131952","prxu5zghj5w","sheep","nopee","null","<div style=""font-size:60px; color:black;"">+</div>","","","","","","","","","","",""
"","null","image-keyboard-response","63","2.0.0","134955","prxu5zghj5w","sheep","nopee","null","stimuli/organized/STATE/USED/Sphone2.JPG","","","","","memory","false","state","true","","",""
"","null","html-keyboard-response","64","2.0.0","135958","prxu5zghj5w","sheep","nopee","null","<div style=""font-size:60px; color:black;"">+</div>","","","","","","","","","","",""
"","null","image-keyboard-response","65","2.0.0","138961","prxu5zghj5w","sheep","nopee","null","stimuli/organized/EXEMPLAR/USED/Ecabinet2.jpg","","","","","memory","false","exemplar","true","","",""
"","null","html-keyboard-response","66","2.0.0","139965","prxu5zghj5w","sheep","nopee","null","<div style=""font-size:60px; color:black;"">+</div>","","","","","","","","","","",""
"","null","image-keyboard-response","67","2.0.0","142968","prxu5zghj5w","sheep","nopee","null","stimuli/organized/Novel pairs (tested)/n12atelescope.jpg","","","","","memory","false","novel","true","","",""
"","null","html-keyboard-response","68","2.0.0","143970","prxu5zghj5w","sheep","nopee","null","<div style=""font-size:60px; color:black;"">+</div>","","","","","","","","","","",""
"","null","image-keyboard-response","69","2.0.0","146972","prxu5zghj5w","sheep","nopee","null","stimuli/organized/Novel pairs (tested)/n07apotato.jpg","","","","","memory","false","novel","true","","",""
"","null","html-keyboard-response","70","2.0.0","147975","prxu5zghj5w","sheep","nopee","null","<div style=""font-size:60px; color:black;"">+</div>","","","","","","","","","","",""
"","null","image-keyboard-response","71","2.0.0","150978","prxu5zghj5w","sheep","nopee","null","stimuli/organized/STATE/USED/Sbabytoy2.JPG","","","","","memory","false","state","true","","",""
"","null","html-keyboard-response","72","2.0.0","151980","prxu5zghj5w","sheep","nopee","null","<div style=""font-size:60px; color:black;"">+</div>","","","","","","","","","","",""
"","null","image-keyboard-response","73","2.0.0","154984","prxu5zghj5w","sheep","nopee","null","stimuli/organized/STATE/USED/Sgiftbag2.jpg","","","","","memory","false","state","true","","",""
"","null","html-keyboard-response","74","2.0.0","155987","prxu5zghj5w","sheep","nopee","null","<div style=""font-size:60px; color:black;"">+</div>","","","","","","","","","","",""
"","null","image-keyboard-response","75","2.0.0","158990","prxu5zghj5w","sheep","nopee","null","stimuli/organized/STATE/USED/Sgrinder1.jpg","","","","","memory","false","state","true","","",""
"","null","html-keyboard-response","76","2.0.0","159993","prxu5zghj5w","sheep","nopee","null","<div style=""font-size:60px; color:black;"">+</div>","","","","","","","","","","",""
"","null","image-keyboard-response","77","2.0.0","162997","prxu5zghj5w","sheep","nopee","null","stimuli/organized/STATE/USED/Sabacus1.jpg","","","","","memory","false","state","true","","",""
"","null","html-keyboard-response","78","2.0.0","164000","prxu5zghj5w","sheep","nopee","null","<div style=""font-size:60px; color:black;"">+</div>","","","","","","","","","","",""
"","null","image-keyboard-response","79","2.0.0","167004","prxu5zghj5w","sheep","nopee","null","stimuli/organized/STATE/USED/Scontainer2.JPG","","","","","memory","false","state","true","","",""
"","null","html-keyboard-response","80","2.0.0","168006","prxu5zghj5w","sheep","nopee","null","<div style=""font-size:60px; color:black;"">+</div>","","","","","","","","","","",""
"","null","image-keyboard-response","81","2.0.0","171009","prxu5zghj5w","sheep","nopee","null","stimuli/organized/EXEMPLAR/USED/Efan2.jpg","","","","","memory","false","exemplar","true","","",""
"","null","html-keyboard-response","82","2.0.0","172011","prxu5zghj5w","sheep","nopee","null","<div style=""font-size:60px; color:black;"">+</div>","","","","","","","","","","",""
"","null","image-keyboard-response","83","2.0.0","175014","prxu5zghj5w","sheep","nopee","null","stimuli/organized/EXEMPLAR/USED/Edispenser2.jpg","","","","","memory","false","exemplar","true","","",""
"","null","html-keyboard-response","84","2.0.0","176016","prxu5zghj5w","sheep","nopee","null","<div style=""font-size:60px; color:black;"">+</div>","","","","","","","","","","",""
"","null","image-keyboard-response","85","2.0.0","179019","prxu5zghj5w","sheep","nopee","null","stimuli/organized/EXEMPLAR/USED/Ecamera1.jpg","","","","","memory","false","exemplar","true","","",""
"","null","html-keyboard-response","86","2.0.0","180021","prxu5zghj5w","sheep","nopee","null","<div style=""font-size:60px; color:black;"">+</div>","","","","","","","","","","",""
"","null","image-keyboard-response","87","2.0.0","183025","prxu5zghj5w","sheep","nopee","null","stimuli/organized/EXEMPLAR/USED/Egame2.jpg","","","","","memory","false","exemplar","true","","",""
"","null","html-keyboard-response","88","2.0.0","184029","prxu5zghj5w","sheep","nopee","null","<div style=""font-size:60px; color:black;"">+</div>","","","","","","","","","","",""
"","null","image-keyboard-response","89","2.0.0","187032","prxu5zghj5w","sheep","nopee","null","stimuli/organized/STATE/USED/Scoffeemaker1.JPG","","","","","memory","false","state","true","","",""
"","null","html-keyboard-response","90","2.0.0","188034","prxu5zghj5w","sheep","nopee","null","<div style=""font-size:60px; color:black;"">+</div>","","","","","","","","","","",""
"","null","image-keyboard-response","91","2.0.0","191037","prxu5zghj5w","sheep","nopee","null","stimuli/organized/EXEMPLAR/USED/Efeather1.jpg","","","","","memory","false","exemplar","true","","",""
"","null","html-keyboard-response","92","2.0.0","192041","prxu5zghj5w","sheep","nopee","null","<div style=""font-size:60px; color:black;"">+</div>","","","","","","","","","","",""
"","null","image-keyboard-response","93","2.0.0","195044","prxu5zghj5w","sheep","nopee","null","stimuli/organized/Novel pairs (tested)/n04bbandaid.jpg","","","","","memory","false","novel","true","","",""
"","null","html-keyboard-response","94","2.0.0","196047","prxu5zghj5w","sheep","nopee","null","<div style=""font-size:60px; color:black;"">+</div>","","","","","","","","","","",""
"","null","image-keyboard-response","95","2.0.0","199050","prxu5zghj5w","sheep","nopee","null","stimuli/organized/Novel pairs (tested)/n16abananas.jpg","","","","","memory","false","novel","true","","",""
"","null","html-keyboard-response","96","2.0.0","200054","prxu5zghj5w","sheep","nopee","null","<div style=""font-size:60px; color:black;"">+</div>","","","","","","","","","","",""
"","null","image-keyboard-response","97","2.0.0","203057","prxu5zghj5w","sheep","nopee","null","stimuli/organized/EXEMPLAR/USED/Egrapes1.jpg","","","","","memory","false","exemplar","true","","",""
"","null","html-keyboard-response","98","2.0.0","204060","prxu5zghj5w","sheep","nopee","null","<div style=""font-size:60px; color:black;"">+</div>","","","","","","","","","","",""
"","null","image-keyboard-response","99","2.0.0","207063","prxu5zghj5w","sheep","nopee","null","stimuli/organized/EXEMPLAR/USED/Echocolatebar1.jpg","","","","","memory","false","exemplar","true","","",""
"","null","html-keyboard-response","100","2.0.0","208066","prxu5zghj5w","sheep","nopee","null","<div style=""font-size:60px; color:black;"">+</div>","","","","","","","","","","",""
"","null","image-keyboard-response","101","2.0.0","211069","prxu5zghj5w","sheep","nopee","null","stimuli/organized/STATE/USED/Sbriefcase2.jpg","","","","","memory","false","state","true","","",""
"","null","html-keyboard-response","102","2.0.0","212072","prxu5zghj5w","sheep","nopee","null","<div style=""font-size:60px; color:black;"">+</div>","","","","","","","","","","",""
"","null","image-keyboard-response","103","2.0.0","215075","prxu5zghj5w","sheep","nopee","null","stimuli/organized/EXEMPLAR/USED/Ebasket2.jpg","","","","","memory","false","exemplar","true","","",""
"","null","html-keyboard-response","104","2.0.0","216079","prxu5zghj5w","sheep","nopee","null","<div style=""font-size:60px; color:black;"">+</div>","","","","","","","","","","",""
"","null","image-keyboard-response","105","2.0.0","219083","prxu5zghj5w","sheep","nopee","null","stimuli/organized/Novel pairs (tested)/n13bdustpan.jpg","","","","","memory","false","novel","true","","",""
"","null","html-keyboard-response","106","2.0.0","220086","prxu5zghj5w","sheep","nopee","null","<div style=""font-size:60px; color:black;"">+</div>","","","","","","","","","","",""
"","null","image-keyboard-response","107","2.0.0","223089","prxu5zghj5w","sheep","nopee","null","stimuli/organized/Novel pairs (tested)/n01bcoin.jpg","","","","","memory","false","novel","true","","",""
"","null","html-keyboard-response","108","2.0.0","224092","prxu5zghj5w","sheep","nopee","null","<div style=""font-size:60px; color:black;"">+</div>","","","","","","","","","","",""
"","null","image-keyboard-response","109","2.0.0","227095","prxu5zghj5w","sheep","nopee","null","stimuli/organized/Novel pairs (tested)/n18apretzel.jpg","","","","","memory","false","novel","true","","",""
"","null","html-keyboard-response","110","2.0.0","228098","prxu5zghj5w","sheep","nopee","null","<div style=""font-size:60px; color:black;"">+</div>","","","","","","","","","","",""
"","null","image-keyboard-response","111","2.0.0","231102","prxu5zghj5w","sheep","nopee","null","stimuli/organized/STATE/USED/Slaptop2.JPG","","","","","memory","false","state","true","","",""
"","null","html-keyboard-response","112","2.0.0","232105","prxu5zghj5w","sheep","nopee","null","<div style=""font-size:60px; color:black;"">+</div>","","","","","","","","","","",""
"","null","image-keyboard-response","113","2.0.0","235109","prxu5zghj5w","sheep","nopee","null","stimuli/organized/Novel pairs (tested)/n14acigarette.jpg","","","","","memory","false","novel","true","","",""
"","null","html-keyboard-response","114","2.0.0","236111","prxu5zghj5w","sheep","nopee","null","<div style=""font-size:60px; color:black;"">+</div>","","","","","","","","","","",""
"","null","image-keyboard-response","115","2.0.0","239115","prxu5zghj5w","sheep","nopee","null","stimuli/organized/Novel pairs (tested)/n19apickle.jpg","","","","","memory","false","novel","true","","",""
"","null","html-keyboard-response","116","2.0.0","240119","prxu5zghj5w","sheep","nopee","null","<div style=""font-size:60px; color:black;"">+</div>","","","","","","","","","","",""
"","null","image-keyboard-response","117","2.0.0","243123","prxu5zghj5w","sheep","nopee","null","stimuli/organized/STATE/USED/Schinesefoodbox2.jpg","","","","","memory","false","state","true","","",""
"","null","html-keyboard-response","118","2.0.0","244125","prxu5zghj5w","sheep","nopee","null","<div style=""font-size:60px; color:black;"">+</div>","","","","","","","","","","",""
"","null","image-keyboard-response","119","2.0.0","247129","prxu5zghj5w","sheep","nopee","null","stimuli/organized/EXEMPLAR/USED/Ebread2.jpg","","","","","memory","false","exemplar","true","","",""
"","null","html-keyboard-response","120","2.0.0","248133","prxu5zghj5w","sheep","nopee","null","<div style=""font-size:60px; color:black;"">+</div>","","","","","","","","","","",""
"","null","image-keyboard-response","121","2.0.0","251136","prxu5zghj5w","sheep","nopee","null","stimuli/organized/EXEMPLAR/USED/Egoggles1.jpg","","","","","memory","false","exemplar","true","","",""
"","null","html-keyboard-response","122","2.0.0","252139","prxu5zghj5w","sheep","nopee","null","<div style=""font-size:60px; color:black;"">+</div>","","","","","","","","","","",""
"","null","image-keyboard-response","123","2.0.0","255142","prxu5zghj5w","sheep","nopee","null","stimuli/organized/Novel pairs (tested)/n15bfootball.jpg","","","","","memory","false","novel","true","","",""
"","null","html-keyboard-response","124","2.0.0","256145","prxu5zghj5w","sheep","nopee","null","<div style=""font-size:60px; color:black;"">+</div>","","","","","","","","","","",""
"","null","image-keyboard-response","125","2.0.0","259148","prxu5zghj5w","sheep","nopee","null","stimuli/organized/Novel pairs (tested)/n03acamel.jpg","","","","","memory","false","novel","true","","",""
"","null","html-keyboard-response","126","2.0.0","260151","prxu5zghj5w","sheep","nopee","null","<div style=""font-size:60px; color:black;"">+</div>","","","","","","","","","","",""
"","null","image-keyboard-response","127","2.0.0","263155","prxu5zghj5w","sheep","nopee","null","stimuli/organized/Novel pairs (tested)/n02aaxe.jpg","","","","","memory","false","novel","true","","",""
"","null","html-keyboard-response","128","2.0.0","264159","prxu5zghj5w","sheep","nopee","null","<div style=""font-size:60px; color:black;"">+</div>","","","","","","","","","","",""
"","null","image-keyboard-response","129","2.0.0","267162","prxu5zghj5w","sheep","nopee","null","stimuli/organized/Novel pairs (tested)/n05abarrel.jpg","","","","","memory","false","novel","true","","",""
"","null","html-keyboard-response","130","2.0.0","268165","prxu5zghj5w","sheep","nopee","null","<div style=""font-size:60px; color:black;"">+</div>","","","","","","","","","","",""
"","null","image-keyboard-response","131","2.0.0","271169","prxu5zghj5w","sheep","nopee","null","stimuli/organized/EXEMPLAR/USED/Ebracelet1.jpg","","","","","memory","false","exemplar","true","","",""
"","null","html-keyboard-response","132","2.0.0","272171","prxu5zghj5w","sheep","nopee","null","<div style=""font-size:60px; color:black;"">+</div>","","","","","","","","","","",""
"","null","image-keyboard-response","133","2.0.0","275175","prxu5zghj5w","sheep","nopee","null","stimuli/organized/STATE/USED/Sfiretrucktoy2.jpg","","","","","memory","false","state","true","","",""
"","null","html-keyboard-response","134","2.0.0","276177","prxu5zghj5w","sheep","nopee","null","<div style=""font-size:60px; color:black;"">+</div>","","","","","","","","","","",""
"","null","image-keyboard-response","135","2.0.0","279181","prxu5zghj5w","sheep","nopee","null","stimuli/organized/STATE/USED/Sabacus1.jpg","","","","","memory","true","state","false","","",""
"","null","html-keyboard-response","136","2.0.0","280184","prxu5zghj5w","sheep","nopee","null","<div style=""font-size:60px; color:black;"">+</div>","","","","","","","","","","",""
"","null","image-keyboard-response","137","2.0.0","283188","prxu5zghj5w","sheep","nopee","null","stimuli/organized/EXEMPLAR/USED/Ebell1.jpg","","","","","memory","false","exemplar","true","","",""
"","null","html-keyboard-response","138","2.0.0","284191","prxu5zghj5w","sheep","nopee","null","<div style=""font-size:60px; color:black;"">+</div>","","","","","","","","","","",""
"","null","image-keyboard-response","139","2.0.0","287195","prxu5zghj5w","sheep","nopee","null","stimuli/organized/STATE/USED/Sdresser2.jpg","","","","","memory","false","state","true","","",""
"","null","html-keyboard-response","140","2.0.0","288198","prxu5zghj5w","sheep","nopee","null","<div style=""font-size:60px; color:black;"">+</div>","","","","","","","","","","",""
"","null","image-keyboard-response","141","2.0.0","291202","prxu5zghj5w","sheep","nopee","null","stimuli/organized/EXEMPLAR/USED/Ecalculator1.jpg","","","","","memory","false","exemplar","true","","",""
"","null","html-keyboard-response","142","2.0.0","292204","prxu5zghj5w","sheep","nopee","null","<div style=""font-size:60px; color:black;"">+</div>","","","","","","","","","","",""
"","1780","image-keyboard-response","143","2.0.0","295207","prxu5zghj5w","sheep","nopee"," ","stimuli/organized/STATE/USED/Sdryer1.jpg","","","","","memory","false","state","false","","",""
"","null","html-keyboard-response","144","2.0.0","296211","prxu5zghj5w","sheep","nopee","null","<div style=""font-size:60px; color:red;"">+</div>","","","","","","","","","","",""
"","1394","image-keyboard-response","145","2.0.0","299223","prxu5zghj5w","sheep","nopee"," ","stimuli/organized/EXEMPLAR/USED/Ecamera1.jpg","","","","","memory","true","exemplar","true","","",""
"","null","html-keyboard-response","146","2.0.0","300226","prxu5zghj5w","sheep","nopee","null","<div style=""font-size:60px; color:green;"">+</div>","","","","","","","","","","",""
"","989","image-keyboard-response","147","2.0.0","303229","prxu5zghj5w","sheep","nopee"," ","stimuli/organized/Novel pairs (tested)/n11abatteries.jpg","","","","","memory","false","novel","false","","",""
"","null","html-keyboard-response","148","2.0.0","304233","prxu5zghj5w","sheep","nopee","null","<div style=""font-size:60px; color:red;"">+</div>","","","","","","","","","","",""
"","1072","image-keyboard-response","149","2.0.0","307236","prxu5zghj5w","sheep","nopee"," ","stimuli/organized/Novel pairs (tested)/n02aaxe.jpg","","","","","memory","true","novel","true","","",""
"","null","html-keyboard-response","150","2.0.0","308239","prxu5zghj5w","sheep","nopee","null","<div style=""font-size:60px; color:green;"">+</div>","","","","","","","","","","",""
"","1109","image-keyboard-response","151","2.0.0","311243","prxu5zghj5w","sheep","nopee"," ","stimuli/organized/Novel pairs (tested)/n01bcoin.jpg","","","","","memory","true","novel","true","","",""
"","null","html-keyboard-response","152","2.0.0","312246","prxu5zghj5w","sheep","nopee","null","<div style=""font-size:60px; color:green;"">+</div>","","","","","","","","","","",""
"","null","image-keyboard-response","153","2.0.0","315250","prxu5zghj5w","sheep","nopee","null","stimuli/organized/Novel pairs (tested)/n06acane.jpg","","","","","memory","false","novel","true","","",""
"","null","html-keyboard-response","154","2.0.0","316253","prxu5zghj5w","sheep","nopee","null","<div style=""font-size:60px; color:black;"">+</div>","","","","","","","","","","",""
"","null","image-keyboard-response","155","2.0.0","319256","prxu5zghj5w","sheep","nopee","null","stimuli/organized/EXEMPLAR/USED/Ebicycle2.jpg","","","","","memory","false","exemplar","true","","",""
"","null","html-keyboard-response","156","2.0.0","320259","prxu5zghj5w","sheep","nopee","null","<div style=""font-size:60px; color:black;"">+</div>","","","","","","","","","","",""
"","2130","image-keyboard-response","157","2.0.0","323262","prxu5zghj5w","sheep","nopee"," ","stimuli/organized/Novel pairs (tested)/n15bfootball.jpg","","","","","memory","true","novel","true","","",""
"","null","html-keyboard-response","158","2.0.0","324264","prxu5zghj5w","sheep","nopee","null","<div style=""font-size:60px; color:green;"">+</div>","","","","","","","","","","",""
"","null","image-keyboard-response","159","2.0.0","327268","prxu5zghj5w","sheep","nopee","null","stimuli/organized/STATE/USED/Sgiftbox2.jpg","","","","","memory","false","state","true","","",""
"","null","html-keyboard-response","160","2.0.0","328272","prxu5zghj5w","sheep","nopee","null","<div style=""font-size:60px; color:black;"">+</div>","","","","","","","","","","",""
"","null","image-keyboard-response","161","2.0.0","331275","prxu5zghj5w","sheep","nopee","null","stimuli/organized/Novel pairs (tested)/n20acarseat.jpg","","","","","memory","false","novel","true","","",""
"","null","html-keyboard-response","162","2.0.0","332278","prxu5zghj5w","sheep","nopee","null","<div style=""font-size:60px; color:black;"">+</div>","","","","","","","","","","",""
"","null","image-keyboard-response","163","2.0.0","335282","prxu5zghj5w","sheep","nopee","null","stimuli/organized/STATE/USED/Sbreadbox2.JPG","","","","","memory","false","state","true","","",""
"","null","html-keyboard-response","164","2.0.0","336285","prxu5zghj5w","sheep","nopee","null","<div style=""font-size:60px; color:black;"">+</div>","","","","","","","","","","",""
"","null","image-keyboard-response","165","2.0.0","339288","prxu5zghj5w","sheep","nopee","null","stimuli/organized/STATE/USED/Sapplesgreenbasket2.jpg","","","","","memory","false","state","true","","",""
"","4268","html-button-response","166","2.0.0","343559","prxu5zghj5w","sheep","nopee","0","<p>You have completed the study phase.</p><p>Take a short break. Press the button below when you are ready to continue.</p>","","","","","","","","","","",""
"","4607","html-keyboard-response","167","2.0.0","348170","prxu5zghj5w","sheep","nopee"," ","<p>You will now be shown pairs of images.</p><p>Select the image you remember seeing during the study phase.</p><p>Focus on accuracy, not speed.</p><p>Press any key to begin.</p>","","","","","","","","","","",""
"","1370","html-button-response","168","2.0.0","349542","prxu5zghj5w","sheep","nopee","1","Which of these items did you see earlier?","","","","","test","","novel","true","stimuli/organized/Novel pairs (tested)/n10bturkey.jpg","stimuli/organized/Novel pairs (tested)/n10awindmill.jpg","1"
"","1131","html-button-response","169","2.0.0","350675","prxu5zghj5w","sheep","nopee","0","Which of these items did you see earlier?","","","","","test","","exemplar","true","stimuli/organized/EXEMPLAR/USED/Ecabinet2.jpg","stimuli/organized/EXEMPLAR/USED/Ecabinet1.jpg","0"
"","1765","html-button-response","170","2.0.0","352442","prxu5zghj5w","sheep","nopee","0","Which of these items did you see earlier?","","","","","test","","state","true","stimuli/organized/STATE/USED/Scontainer2.JPG","stimuli/organized/STATE/USED/Scontainer1.JPG","0"
"","1981","html-button-response","171","2.0.0","354425","prxu5zghj5w","sheep","nopee","0","Which of these items did you see earlier?","","","","","test","","state","true","stimuli/organized/STATE/USED/Sbrushes2.jpg","stimuli/organized/STATE/USED/Sbrushes1.jpg","0"
"","2581","html-button-response","172","2.0.0","357009","prxu5zghj5w","sheep","nopee","0","Which of these items did you see earlier?","","","","","test","","state","true","stimuli/organized/STATE/USED/Sbriefcase2.jpg","stimuli/organized/STATE/USED/Sbriefcase1.jpg","0"
"","1181","html-button-response","173","2.0.0","358192","prxu5zghj5w","sheep","nopee","1","Which of these items did you see earlier?","","","","","test","","state","true","stimuli/organized/STATE/USED/Spie2.JPG","stimuli/organized/STATE/USED/Spie1.JPG","1"
"","1064","html-button-response","174","2.0.0","359259","prxu5zghj5w","sheep","nopee","0","Which of these items did you see earlier?","","","","","test","","exemplar","true","stimuli/organized/EXEMPLAR/USED/Eframe1.jpg","stimuli/organized/EXEMPLAR/USED/Eframe2.jpg","0"
"","1098","html-button-response","175","2.0.0","360359","prxu5zghj5w","sheep","nopee","1","Which of these items did you see earlier?","","","","","test","","novel","true","stimuli/organized/Novel pairs (tested)/n19apickle.jpg","stimuli/organized/Novel pairs (tested)/n19bhairbrush.jpg","1"
"","1165","html-button-response","176","2.0.0","361525","prxu5zghj5w","sheep","nopee","0","Which of these items did you see earlier?","","","","","test","","state","true","stimuli/organized/STATE/USED/Sbelt2.jpg","stimuli/organized/STATE/USED/Sbelt1.jpg","0"
"","901","html-button-response","177","2.0.0","362428","prxu5zghj5w","sheep","nopee","0","Which of these items did you see earlier?","","","","","test","","exemplar","true","stimuli/organized/EXEMPLAR/USED/Egoggles1.jpg","stimuli/organized/EXEMPLAR/USED/Egoggles2.jpg","0"
"","1079","html-button-response","178","2.0.0","363508","prxu5zghj5w","sheep","nopee","0","Which of these items did you see earlier?","","","","","test","","state","true","stimuli/organized/STATE/USED/Sdresser2.jpg","stimuli/organized/STATE/USED/Sdresser1.jpg","0"
"","998","html-button-response","179","2.0.0","364508","prxu5zghj5w","sheep","nopee","1","Which of these items did you see earlier?","","","","","test","","exemplar","true","stimuli/organized/EXEMPLAR/USED/Ecalculator1.jpg","stimuli/organized/EXEMPLAR/USED/Ecalculator2.jpg","1"
"","948","html-button-response","180","2.0.0","365459","prxu5zghj5w","sheep","nopee","0","Which of these items did you see earlier?","","","","","test","","novel","true","stimuli/organized/Novel pairs (tested)/n03acamel.jpg","stimuli/organized/Novel pairs (tested)/n03bbagel.jpg","0"
"","1981","html-button-response","181","2.0.0","367442","prxu5zghj5w","sheep","nopee","1","Which of these items did you see earlier?","","","","","test","","novel","true","stimuli/organized/Novel pairs (tested)/n05abarrel.jpg","stimuli/organized/Novel pairs (tested)/n05bcactus.jpg","1"
"","1997","html-button-response","182","2.0.0","369441","prxu5zghj5w","sheep","nopee","1","Which of these items did you see earlier?","","","","","test","","exemplar","true","stimuli/organized/EXEMPLAR/USED/Ecar2.jpg","stimuli/organized/EXEMPLAR/USED/Ecar1.jpg","1"
"","1999","html-button-response","183","2.0.0","371442","prxu5zghj5w","sheep","nopee","1","Which of these items did you see earlier?","","","","","test","","state","true","stimuli/organized/STATE/USED/Sdie2.jpg","stimuli/organized/STATE/USED/Sdie1.jpg","1"
"","1199","html-button-response","184","2.0.0","372642","prxu5zghj5w","sheep","nopee","0","Which of these items did you see earlier?","","","","","test","","exemplar","true","stimuli/organized/EXEMPLAR/USED/Ebracelet1.jpg","stimuli/organized/EXEMPLAR/USED/Ebracelet2.jpg","0"
"","1648","html-button-response","185","2.0.0","374292","prxu5zghj5w","sheep","nopee","0","Which of these items did you see earlier?","","","","","test","","novel","true","stimuli/organized/Novel pairs (tested)/n14acigarette.jpg","stimuli/organized/Novel pairs (tested)/n14bgolfball.jpg","0"
"","1848","html-button-response","186","2.0.0","376142","prxu5zghj5w","sheep","nopee","1","Which of these items did you see earlier?","","","","","test","","state","true","stimuli/organized/STATE/USED/Slaptop2.JPG","stimuli/organized/STATE/USED/Slaptop1.JPG","1"
"","948","html-button-response","187","2.0.0","377092","prxu5zghj5w","sheep","nopee","1","Which of these items did you see earlier?","","","","","test","","exemplar","true","stimuli/organized/EXEMPLAR/USED/Ecamera1.jpg","stimuli/organized/EXEMPLAR/USED/Ecamera2.jpg","1"
"","964","html-button-response","188","2.0.0","378059","prxu5zghj5w","sheep","nopee","0","Which of these items did you see earlier?","","","","","test","","exemplar","true","stimuli/organized/EXEMPLAR/USED/Ebread2.jpg","stimuli/organized/EXEMPLAR/USED/Ebread1.jpg","0"
"","948","html-button-response","189","2.0.0","379008","prxu5zghj5w","sheep","nopee","1","Which of these items did you see earlier?","","","","","test","","state","true","stimuli/organized/STATE/USED/Sscissors1.JPG","stimuli/organized/STATE/USED/Sscissors2.JPG","1"
"","1182","html-button-response","190","2.0.0","380192","prxu5zghj5w","sheep","nopee","0","Which of these items did you see earlier?","","","","","test","","state","false","stimuli/organized/STATE/USED/Seggs2.jpg","stimuli/organized/STATE/USED/Seggs1.jpg","1"
"","1248","html-button-response","191","2.0.0","381442","prxu5zghj5w","sheep","nopee","0","Which of these items did you see earlier?","","","","","test","","novel","true","stimuli/organized/Novel pairs (tested)/n15bfootball.jpg","stimuli/organized/Novel pairs (tested)/n15aspiderweb.jpg","0"
"","1181","html-button-response","192","2.0.0","382625","prxu5zghj5w","sheep","nopee","1","Which of these items did you see earlier?","","","","","test","","novel","true","stimuli/organized/Novel pairs (tested)/n18apretzel.jpg","stimuli/organized/Novel pairs (tested)/n18bsnail.jpg","1"
"","815","html-button-response","193","2.0.0","383442","prxu5zghj5w","sheep","nopee","0","Which of these items did you see earlier?","","","","","test","","novel","true","stimuli/organized/Novel pairs (tested)/n02aaxe.jpg","stimuli/organized/Novel pairs (tested)/n02bsafetypin.jpg","0"
"","1381","html-button-response","194","2.0.0","384825","prxu5zghj5w","sheep","nopee","0","Which of these items did you see earlier?","","","","","test","","state","true","stimuli/organized/STATE/USED/Sabacus1.jpg","stimuli/organized/STATE/USED/Sabacus2.jpg","0"
"","1915","html-button-response","195","2.0.0","386742","prxu5zghj5w","sheep","nopee","1","Which of these items did you see earlier?","","","","","test","","state","true","stimuli/organized/STATE/USED/Sphone2.JPG","stimuli/organized/STATE/USED/Sphone1.JPG","1"
"","1065","html-button-response","196","2.0.0","387809","prxu5zghj5w","sheep","nopee","1","Which of these items did you see earlier?","","","","","test","","exemplar","true","stimuli/organized/EXEMPLAR/USED/Egame2.jpg","stimuli/organized/EXEMPLAR/USED/Egame1.jpg","1"
"","815","html-button-response","197","2.0.0","388625","prxu5zghj5w","sheep","nopee","0","Which of these items did you see earlier?","","","","","test","","novel","true","stimuli/organized/Novel pairs (tested)/n01bcoin.jpg","stimuli/organized/Novel pairs (tested)/n01aladybug.jpg","0"
"","914","html-button-response","198","2.0.0","389542","prxu5zghj5w","sheep","nopee","0","Which of these items did you see earlier?","","","","","test","","exemplar","true","stimuli/organized/EXEMPLAR/USED/Echocolatebar1.jpg","stimuli/organized/EXEMPLAR/USED/Echocolatebar2.jpg","0"
"","981","html-button-response","199","2.0.0","390524","prxu5zghj5w","sheep","nopee","1","Which of these items did you see earlier?","","","","","test","","exemplar","true","stimuli/organized/EXEMPLAR/USED/Efan2.jpg","stimuli/organized/EXEMPLAR/USED/Efan1.jpg","1"
"","867","html-button-response","200","2.0.0","391392","prxu5zghj5w","sheep","nopee","0","Which of these items did you see earlier?","","","","","test","","novel","false","stimuli/organized/Novel pairs (tested)/n17bweddingdress.jpg","stimuli/organized/Novel pairs (tested)/n17avendingmachine.jpg","1"
"","1231","html-button-response","201","2.0.0","392625","prxu5zghj5w","sheep","nopee","0","Which of these items did you see earlier?","","","","","test","","novel","true","stimuli/organized/Novel pairs (tested)/n11abatteries.jpg","stimuli/organized/Novel pairs (tested)/n11bsock.jpg","0"
"","1715","html-button-response","202","2.0.0","394342","prxu5zghj5w","sheep","nopee","0","Which of these items did you see earlier?","","","","","test","","state","true","stimuli/organized/STATE/USED/Sdishes1.JPG","stimuli/organized/STATE/USED/Sdishes2.JPG","0"
"","899","html-button-response","203","2.0.0","395242","prxu5zghj5w","sheep","nopee","0","Which of these items did you see earlier?","","","","","test","","state","true","stimuli/organized/STATE/USED/Sapplesgreenbasket2.jpg","stimuli/organized/STATE/USED/Sapplesgreenbasket1.jpg","0"
"","1048","html-button-response","204","2.0.0","396292","prxu5zghj5w","sheep","nopee","1","Which of these items did you see earlier?","","","","","test","","novel","true","stimuli/organized/Novel pairs (tested)/n12atelescope.jpg","stimuli/organized/Novel pairs (tested)/n12bwatch.jpg","1"
"","998","html-button-response","205","2.0.0","397292","prxu5zghj5w","sheep","nopee","0","Which of these items did you see earlier?","","","","","test","","exemplar","true","stimuli/organized/EXEMPLAR/USED/Edispenser2.jpg","stimuli/organized/EXEMPLAR/USED/Edispenser1.jpg","0"
"","915","html-button-response","206","2.0.0","398209","prxu5zghj5w","sheep","nopee","0","Which of these items did you see earlier?","","","","","test","","exemplar","true","stimuli/organized/EXEMPLAR/USED/Econe2.jpg","stimuli/organized/EXEMPLAR/USED/Econe1.jpg","0"
"","1182","html-button-response","207","2.0.0","399392","prxu5zghj5w","sheep","nopee","0","Which of these items did you see earlier?","","","","","test","","state","false","stimuli/organized/STATE/USED/Scrayons1.jpg","stimuli/organized/STATE/USED/Scrayons2.jpg","1"
"","1898","html-button-response","208","2.0.0","401292","prxu5zghj5w","sheep","nopee","0","Which of these items did you see earlier?","","","","","test","","state","true","stimuli/organized/STATE/USED/Sgrinder1.jpg","stimuli/organized/STATE/USED/Sgrinder2.jpg","0"
"","1231","html-button-response","209","2.0.0","402525","prxu5zghj5w","sheep","nopee","1","Which of these items did you see earlier?","","","","","test","","novel","true","stimuli/organized/Novel pairs (tested)/n04bbandaid.jpg","stimuli/organized/Novel pairs (tested)/n04ayarn.jpg","1"
"","1181","html-button-response","210","2.0.0","403709","prxu5zghj5w","sheep","nopee","1","Which of these items did you see earlier?","","","","","test","","state","false","stimuli/organized/STATE/USED/Sbox1.jpg","stimuli/organized/STATE/USED/Sbox2.jpg","0"
"","881","html-button-response","211","2.0.0","404592","prxu5zghj5w","sheep","nopee","0","Which of these items did you see earlier?","","","","","test","","novel","true","stimuli/organized/Novel pairs (tested)/n08aoven.jpg","stimuli/organized/Novel pairs (tested)/n08bpaperclip.jpg","0"
"","1298","html-button-response","212","2.0.0","405892","prxu5zghj5w","sheep","nopee","1","Which of these items did you see earlier?","","","","","test","","novel","true","stimuli/organized/Novel pairs (tested)/n16abananas.jpg","stimuli/organized/Novel pairs (tested)/n16bhammer.jpg","1"
"","1448","html-button-response","213","2.0.0","407342","prxu5zghj5w","sheep","nopee","0","Which of these items did you see earlier?","","","","","test","","state","true","stimuli/organized/STATE/USED/Scookies2.JPG","stimuli/organized/STATE/USED/Scookies1.JPG","0"
"","1831","html-button-response","214","2.0.0","409176","prxu5zghj5w","sheep","nopee","1","Which of these items did you see earlier?","","","","","test","","state","true","stimuli/organized/STATE/USED/Sdonut1.jpg","stimuli/organized/STATE/USED/Sdonut2.jpg","1"
"","1600","html-button-response","215","2.0.0","410778","prxu5zghj5w","sheep","nopee","0","Which of these items did you see earlier?","","","","","test","","state","false","stimuli/organized/STATE/USED/Sflask1.jpg","stimuli/organized/STATE/USED/Sflask2.jpg","1"
"","961","html-button-response","216","2.0.0","411741","prxu5zghj5w","sheep","nopee","1","Which of these items did you see earlier?","","","","","test","","state","true","stimuli/organized/STATE/USED/Sdryer1.jpg","stimuli/organized/STATE/USED/Sdryer2.jpg","1"
"","1149","html-button-response","217","2.0.0","412892","prxu5zghj5w","sheep","nopee","1","Which of these items did you see earlier?","","","","","test","","exemplar","true","stimuli/organized/EXEMPLAR/USED/Ebasket2.jpg","stimuli/organized/EXEMPLAR/USED/Ebasket1.jpg","1"
"","1132","html-button-response","218","2.0.0","414026","prxu5zghj5w","sheep","nopee","1","Which of these items did you see earlier?","","","","","test","","state","true","stimuli/organized/STATE/USED/Sgiftbag2.jpg","stimuli/organized/STATE/USED/Sgiftbag1.jpg","1"
"","964","html-button-response","219","2.0.0","414992","prxu5zghj5w","sheep","nopee","0","Which of these items did you see earlier?","","","","","test","","novel","true","stimuli/organized/Novel pairs (tested)/n13bdustpan.jpg","stimuli/organized/Novel pairs (tested)/n13ablueberries.jpg","0"
"","3332","html-button-response","220","2.0.0","418326","prxu5zghj5w","sheep","nopee","1","Which of these items did you see earlier?","","","","","test","","state","true","stimuli/organized/STATE/USED/Sdrum1.jpg","stimuli/organized/STATE/USED/Sdrum2.jpg","1"
"","1697","html-button-response","221","2.0.0","420025","prxu5zghj5w","sheep","nopee","0","Which of these items did you see earlier?","","","","","test","","state","true","stimuli/organized/STATE/USED/Sscanner2.JPG","stimuli/organized/STATE/USED/Sscanner1.JPG","0"
"","1916","html-button-response","222","2.0.0","421942","prxu5zghj5w","sheep","nopee","1","Which of these items did you see earlier?","","","","","test","","state","true","stimuli/organized/STATE/USED/Shairbrush2.jpg","stimuli/organized/STATE/USED/Shairbrush1.jpg","1"
"","1098","html-button-response","223","2.0.0","423042","prxu5zghj5w","sheep","nopee","0","Which of these items did you see earlier?","","","","","test","","state","false","stimuli/organized/STATE/USED/Sbureau1.JPG","stimuli/organized/STATE/USED/Sbureau2.JPG","1"
"","1081","html-button-response","224","2.0.0","424126","prxu5zghj5w","sheep","nopee","1","Which of these items did you see earlier?","","","","","test","","state","true","stimuli/organized/STATE/USED/Sgiftbox2.jpg","stimuli/organized/STATE/USED/Sgiftbox1.jpg","1"
"","915","html-button-response","225","2.0.0","425042","prxu5zghj5w","sheep","nopee","0","Which of these items did you see earlier?","","","","","test","","state","true","stimuli/organized/STATE/USED/Schinesefoodbox2.jpg","stimuli/organized/STATE/USED/Schinesefoodbox1.jpg","0"
"","1414","html-button-response","226","2.0.0","426459","prxu5zghj5w","sheep","nopee","0","Which of these items did you see earlier?","","","","","test","","exemplar","true","stimuli/organized/EXEMPLAR/USED/Echisel2.jpg","stimuli/organized/EXEMPLAR/USED/Echisel1.jpg","0"
"","1332","html-button-response","227","2.0.0","427793","prxu5zghj5w","sheep","nopee","1","Which of these items did you see earlier?","","","","","test","","state","true","stimuli/organized/STATE/USED/Scoffeemaker1.JPG","stimuli/organized/STATE/USED/Scoffeemaker2.JPG","1"
"","1247","html-button-response","228","2.0.0","429042","prxu5zghj5w","sheep","nopee","0","Which of these items did you see earlier?","","","","","test","","state","false","stimuli/organized/STATE/USED/Sjuiceglass1.JPG","stimuli/organized/STATE/USED/Sjuiceglass2.JPG","1"
"","881","html-button-response","229","2.0.0","429926","prxu5zghj5w","sheep","nopee","0","Which of these items did you see earlier?","","","","","test","","exemplar","false","stimuli/organized/EXEMPLAR/USED/Eglobe2.jpg","stimuli/organized/EXEMPLAR/USED/Eglobe1.jpg","1"
"","1131","html-button-response","230","2.0.0","431059","prxu5zghj5w","sheep","nopee","0","Which of these items did you see earlier?","","","","","test","","novel","true","stimuli/organized/Novel pairs (tested)/n06acane.jpg","stimuli/organized/Novel pairs (tested)/n06blipstick.jpg","0"
"","1014","html-button-response","231","2.0.0","432075","prxu5zghj5w","sheep","nopee","0","Which of these items did you see earlier?","","","","","test","","exemplar","true","stimuli/organized/EXEMPLAR/USED/Efeather1.jpg","stimuli/organized/EXEMPLAR/USED/Efeather2.jpg","0"
"","1065","html-button-response","232","2.0.0","433142","prxu5zghj5w","sheep","nopee","1","Which of these items did you see earlier?","","","","","test","","state","true","stimuli/organized/STATE/USED/Sfiretrucktoy2.jpg","stimuli/organized/STATE/USED/Sfiretrucktoy1.jpg","1"
"","1732","html-button-response","233","2.0.0","434878","prxu5zghj5w","sheep","nopee","1","Which of these items did you see earlier?","","","","","test","","exemplar","true","stimuli/organized/EXEMPLAR/USED/Ebell1.jpg","stimuli/organized/EXEMPLAR/USED/Ebell2.jpg","1"
"","929","html-button-response","234","2.0.0","435809","prxu5zghj5w","sheep","nopee","0","Which of these items did you see earlier?","","","","","test","","exemplar","true","stimuli/organized/EXEMPLAR/USED/Ebicycle2.jpg","stimuli/organized/EXEMPLAR/USED/Ebicycle1.jpg","0"
"","1180","html-button-response","235","2.0.0","436992","prxu5zghj5w","sheep","nopee","0","Which of these items did you see earlier?","","","","","test","","state","true","stimuli/organized/STATE/USED/Sbabytoy2.JPG","stimuli/organized/STATE/USED/Sbabytoy1.JPG","0"
"","1064","html-button-response","236","2.0.0","438058","prxu5zghj5w","sheep","nopee","1","Which of these items did you see earlier?","","","","","test","","novel","true","stimuli/organized/Novel pairs (tested)/n07apotato.jpg","stimuli/organized/Novel pairs (tested)/n07bswimmingpool.jpg","1"
"","1516","html-button-response","237","2.0.0","439575","prxu5zghj5w","sheep","nopee","0","Which of these items did you see earlier?","","","","","test","","novel","true","stimuli/organized/Novel pairs (tested)/n09apenguin.jpg","stimuli/organized/Novel pairs (tested)/n09bsaddle.jpg","0"
"","831","html-button-response","238","2.0.0","440408","prxu5zghj5w","sheep","nopee","0","Which of these items did you see earlier?","","","","","test","","novel","true","stimuli/organized/Novel pairs (tested)/n20acarseat.jpg","stimuli/organized/Novel pairs (tested)/n20bshelf.jpg","0"
"","1600","html-button-response","239","2.0.0","442009","prxu5zghj5w","sheep","nopee","0","Which of these items did you see earlier?","","","","","test","","state","false","stimuli/organized/STATE/USED/Sbooks1.JPG","stimuli/organized/STATE/USED/Sbooks2.JPG","1"
"","2431","html-button-response","240","2.0.0","444442","prxu5zghj5w","sheep","nopee","1","Which of these items did you see earlier?","","","","","test","","state","true","stimuli/organized/STATE/USED/Sbreadbox2.JPG","stimuli/organized/STATE/USED/Sbreadbox1.JPG","1"
"","1148","html-button-response","241","2.0.0","445592","prxu5zghj5w","sheep","nopee","1","Which of these items did you see earlier?","","","","","test","","state","true","stimuli/organized/STATE/USED/Spotpan2.JPG","stimuli/organized/STATE/USED/Spotpan1.JPG","1"
"","1065","html-button-response","242","2.0.0","446659","prxu5zghj5w","sheep","nopee","0","Which of these items did you see earlier?","","","","","test","","state","true","stimuli/organized/STATE/USED/Sbottles1.JPG","stimuli/organized/STATE/USED/Sbottles2.JPG","0"
"","1031","html-button-response","243","2.0.0","447692","prxu5zghj5w","sheep","nopee","0","Which of these items did you see earlier?","","","","","test","","exemplar","true","stimuli/organized/EXEMPLAR/USED/Egrapes1.jpg","stimuli/organized/EXEMPLAR/USED/Egrapes2.jpg","0"
"","7184","survey-html-form","244","2.0.0","454879","prxu5zghj5w","sheep","nopee","{""age"":""22"",""gender"":""female"",""memory_experiment_experience"":""yes""}","","","","","","","","","","","",""
"","11376","survey-text","245","2.0.0","466258","prxu5zghj5w","sheep","nopee","{""task_guess"":""how much we can store in our brains related to objects""}","","","","","","","","","","","",""
"","2432","survey-text","246","2.0.0","468691","prxu5zghj5w","sheep","nopee","{""technical_issues_question"":""nopee""}","","","","","","","","","","","",""
