"success","rt","trial_type","trial_index","plugin_version","time_elapsed","random_id","participant","technical_issues","response","stimulus","timeout","failed_images","failed_audio","failed_video","trial_phase","is_repeat","test_type","correct","old_image","new_image","correct_position"
"true","1130","fullscreen","0","null","2136","pspg9qmve2h","crow","When a repeat item came up, I wasnt sure if my space bar press was registering. It wouldve been nice to have an indicator for that","","","","","","","","","","","","",""
"","1542","survey-text","1","2.0.0","3683","pspg9qmve2h","crow","When a repeat item came up, I wasnt sure if my space bar press was registering. It wouldve been nice to have an indicator for that","{""participant_id"":""crow""}","","","","","","","","","","","",""
"","10205","html-keyboard-response","2","2.0.0","13891","pspg9qmve2h","crow","When a repeat item came up, I wasnt sure if my space bar press was registering. It wouldve been nice to have an indicator for that"," ","
      <p>In this experiment, a series of objects will be displayed.</p>
      <p>Try to memorize as much as possible about the objects.</p>
      <p>If the image is a <strong> repeat</strong>, press the SPACEBAR.</p>
      <p>Press any key to begin.</p>
    ","","","","","","","","","","",""
"true","","preload","3","2.0.0","14467","pspg9qmve2h","crow","When a repeat item came up, I wasnt sure if my space bar press was registering. It wouldve been nice to have an indicator for that","","","false","[]","[]","[]","","","","","","",""
"","null","html-keyboard-response","4","2.0.0","15468","pspg9qmve2h","crow","When a repeat item came up, I wasnt sure if my space bar press was registering. It wouldve been nice to have an indicator for that","null","<div style=""font-size:60px;"">+</div>","","","","","","","","","","",""
"","null","image-keyboard-response","5","2.0.0","18475","pspg9qmve2h","crow","When a repeat item came up, I wasnt sure if my space bar press was registering. It wouldve been nice to have an indicator for that","null","stimuli/organized/Novel pairs (tested)/n16abananas.jpg","","","","","memory","false","novel","true","","",""
"","null","html-keyboard-response","6","2.0.0","19478","pspg9qmve2h","crow","When a repeat item came up, I wasnt sure if my space bar press was registering. It wouldve been nice to have an indicator for that","null","<div style=""font-size:60px; color:black;"">+</div>","","","","","","","","","","",""
"","null","image-keyboard-response","7","2.0.0","22482","pspg9qmve2h","crow","When a repeat item came up, I wasnt sure if my space bar press was registering. It wouldve been nice to have an indicator for that","null","stimuli/organized/STATE/USED/Sscissors2.JPG","","","","","memory","false","state","true","","",""
"","null","html-keyboard-response","8","2.0.0","23485","pspg9qmve2h","crow","When a repeat item came up, I wasnt sure if my space bar press was registering. It wouldve been nice to have an indicator for that","null","<div style=""font-size:60px; color:black;"">+</div>","","","","","","","","","","",""
"","null","image-keyboard-response","9","2.0.0","26489","pspg9qmve2h","crow","When a repeat item came up, I wasnt sure if my space bar press was registering. It wouldve been nice to have an indicator for that","null","stimuli/organized/STATE/USED/Sbottles2.JPG","","","","","memory","false","state","true","","",""
"","null","html-keyboard-response","10","2.0.0","27492","pspg9qmve2h","crow","When a repeat item came up, I wasnt sure if my space bar press was registering. It wouldve been nice to have an indicator for that","null","<div style=""font-size:60px; color:black;"">+</div>","","","","","","","","","","",""
"","null","image-keyboard-response","11","2.0.0","30495","pspg9qmve2h","crow","When a repeat item came up, I wasnt sure if my space bar press was registering. It wouldve been nice to have an indicator for that","null","stimuli/organized/Novel pairs (tested)/n03acamel.jpg","","","","","memory","false","novel","true","","",""
"","null","html-keyboard-response","12","2.0.0","31498","pspg9qmve2h","crow","When a repeat item came up, I wasnt sure if my space bar press was registering. It wouldve been nice to have an indicator for that","null","<div style=""font-size:60px; color:black;"">+</div>","","","","","","","","","","",""
"","null","image-keyboard-response","13","2.0.0","34502","pspg9qmve2h","crow","When a repeat item came up, I wasnt sure if my space bar press was registering. It wouldve been nice to have an indicator for that","null","stimuli/organized/EXEMPLAR/USED/Ebell2.jpg","","","","","memory","false","exemplar","true","","",""
"","null","html-keyboard-response","14","2.0.0","35504","pspg9qmve2h","crow","When a repeat item came up, I wasnt sure if my space bar press was registering. It wouldve been nice to have an indicator for that","null","<div style=""font-size:60px; color:black;"">+</div>","","","","","","","","","","",""
"","null","image-keyboard-response","15","2.0.0","38507","pspg9qmve2h","crow","When a repeat item came up, I wasnt sure if my space bar press was registering. It wouldve been nice to have an indicator for that","null","stimuli/organized/STATE/USED/Schinesefoodbox2.jpg","","","","","memory","false","state","true","","",""
"","null","html-keyboard-response","16","2.0.0","39511","pspg9qmve2h","crow","When a repeat item came up, I wasnt sure if my space bar press was registering. It wouldve been nice to have an indicator for that","null","<div style=""font-size:60px; color:black;"">+</div>","","","","","","","","","","",""
"","null","image-keyboard-response","17","2.0.0","42515","pspg9qmve2h","crow","When a repeat item came up, I wasnt sure if my space bar press was registering. It wouldve been nice to have an indicator for that","null","stimuli/organized/Novel pairs (tested)/n19apickle.jpg","","","","","memory","false","novel","true","","",""
"","null","html-keyboard-response","18","2.0.0","43517","pspg9qmve2h","crow","When a repeat item came up, I wasnt sure if my space bar press was registering. It wouldve been nice to have an indicator for that","null","<div style=""font-size:60px; color:black;"">+</div>","","","","","","","","","","",""
"","null","image-keyboard-response","19","2.0.0","46521","pspg9qmve2h","crow","When a repeat item came up, I wasnt sure if my space bar press was registering. It wouldve been nice to have an indicator for that","null","stimuli/organized/Novel pairs (tested)/n06blipstick.jpg","","","","","memory","false","novel","true","","",""
"","null","html-keyboard-response","20","2.0.0","47523","pspg9qmve2h","crow","When a repeat item came up, I wasnt sure if my space bar press was registering. It wouldve been nice to have an indicator for that","null","<div style=""font-size:60px; color:black;"">+</div>","","","","","","","","","","",""
"","null","image-keyboard-response","21","2.0.0","50527","pspg9qmve2h","crow","When a repeat item came up, I wasnt sure if my space bar press was registering. It wouldve been nice to have an indicator for that","null","stimuli/organized/EXEMPLAR/USED/Ecamera1.jpg","","","","","memory","false","exemplar","true","","",""
"","null","html-keyboard-response","22","2.0.0","51530","pspg9qmve2h","crow","When a repeat item came up, I wasnt sure if my space bar press was registering. It wouldve been nice to have an indicator for that","null","<div style=""font-size:60px; color:black;"">+</div>","","","","","","","","","","",""
"","null","image-keyboard-response","23","2.0.0","54533","pspg9qmve2h","crow","When a repeat item came up, I wasnt sure if my space bar press was registering. It wouldve been nice to have an indicator for that","null","stimuli/organized/STATE/USED/Slaptop1.JPG","","","","","memory","false","state","true","","",""
"","null","html-keyboard-response","24","2.0.0","55536","pspg9qmve2h","crow","When a repeat item came up, I wasnt sure if my space bar press was registering. It wouldve been nice to have an indicator for that","null","<div style=""font-size:60px; color:black;"">+</div>","","","","","","","","","","",""
"","null","image-keyboard-response","25","2.0.0","58540","pspg9qmve2h","crow","When a repeat item came up, I wasnt sure if my space bar press was registering. It wouldve been nice to have an indicator for that","null","stimuli/organized/EXEMPLAR/USED/Efan1.jpg","","","","","memory","false","exemplar","true","","",""
"","null","html-keyboard-response","26","2.0.0","59542","pspg9qmve2h","crow","When a repeat item came up, I wasnt sure if my space bar press was registering. It wouldve been nice to have an indicator for that","null","<div style=""font-size:60px; color:black;"">+</div>","","","","","","","","","","",""
"","null","image-keyboard-response","27","2.0.0","62546","pspg9qmve2h","crow","When a repeat item came up, I wasnt sure if my space bar press was registering. It wouldve been nice to have an indicator for that","null","stimuli/organized/Novel pairs (tested)/n15aspiderweb.jpg","","","","","memory","false","novel","true","","",""
"","null","html-keyboard-response","28","2.0.0","63548","pspg9qmve2h","crow","When a repeat item came up, I wasnt sure if my space bar press was registering. It wouldve been nice to have an indicator for that","null","<div style=""font-size:60px; color:black;"">+</div>","","","","","","","","","","",""
"","null","image-keyboard-response","29","2.0.0","66552","pspg9qmve2h","crow","When a repeat item came up, I wasnt sure if my space bar press was registering. It wouldve been nice to have an indicator for that","null","stimuli/organized/STATE/USED/Spotpan2.JPG","","","","","memory","false","state","true","","",""
"","null","html-keyboard-response","30","2.0.0","67555","pspg9qmve2h","crow","When a repeat item came up, I wasnt sure if my space bar press was registering. It wouldve been nice to have an indicator for that","null","<div style=""font-size:60px; color:black;"">+</div>","","","","","","","","","","",""
"","null","image-keyboard-response","31","2.0.0","70557","pspg9qmve2h","crow","When a repeat item came up, I wasnt sure if my space bar press was registering. It wouldve been nice to have an indicator for that","null","stimuli/organized/STATE/USED/Scrayons1.jpg","","","","","memory","false","state","true","","",""
"","null","html-keyboard-response","32","2.0.0","71560","pspg9qmve2h","crow","When a repeat item came up, I wasnt sure if my space bar press was registering. It wouldve been nice to have an indicator for that","null","<div style=""font-size:60px; color:black;"">+</div>","","","","","","","","","","",""
"","null","image-keyboard-response","33","2.0.0","74563","pspg9qmve2h","crow","When a repeat item came up, I wasnt sure if my space bar press was registering. It wouldve been nice to have an indicator for that","null","stimuli/organized/Novel pairs (tested)/n17bweddingdress.jpg","","","","","memory","false","novel","true","","",""
"","null","html-keyboard-response","34","2.0.0","75566","pspg9qmve2h","crow","When a repeat item came up, I wasnt sure if my space bar press was registering. It wouldve been nice to have an indicator for that","null","<div style=""font-size:60px; color:black;"">+</div>","","","","","","","","","","",""
"","null","image-keyboard-response","35","2.0.0","78569","pspg9qmve2h","crow","When a repeat item came up, I wasnt sure if my space bar press was registering. It wouldve been nice to have an indicator for that","null","stimuli/organized/EXEMPLAR/USED/Ecabinet2.jpg","","","","","memory","false","exemplar","true","","",""
"","null","html-keyboard-response","36","2.0.0","79572","pspg9qmve2h","crow","When a repeat item came up, I wasnt sure if my space bar press was registering. It wouldve been nice to have an indicator for that","null","<div style=""font-size:60px; color:black;"">+</div>","","","","","","","","","","",""
"","null","image-keyboard-response","37","2.0.0","82575","pspg9qmve2h","crow","When a repeat item came up, I wasnt sure if my space bar press was registering. It wouldve been nice to have an indicator for that","null","stimuli/organized/EXEMPLAR/USED/Ebracelet2.jpg","","","","","memory","false","exemplar","true","","",""
"","null","html-keyboard-response","38","2.0.0","83578","pspg9qmve2h","crow","When a repeat item came up, I wasnt sure if my space bar press was registering. It wouldve been nice to have an indicator for that","null","<div style=""font-size:60px; color:black;"">+</div>","","","","","","","","","","",""
"","null","image-keyboard-response","39","2.0.0","86581","pspg9qmve2h","crow","When a repeat item came up, I wasnt sure if my space bar press was registering. It wouldve been nice to have an indicator for that","null","stimuli/organized/EXEMPLAR/USED/Egoggles2.jpg","","","","","memory","false","exemplar","true","","",""
"","null","html-keyboard-response","40","2.0.0","87584","pspg9qmve2h","crow","When a repeat item came up, I wasnt sure if my space bar press was registering. It wouldve been nice to have an indicator for that","null","<div style=""font-size:60px; color:black;"">+</div>","","","","","","","","","","",""
"","null","image-keyboard-response","41","2.0.0","90588","pspg9qmve2h","crow","When a repeat item came up, I wasnt sure if my space bar press was registering. It wouldve been nice to have an indicator for that","null","stimuli/organized/Novel pairs (tested)/n01bcoin.jpg","","","","","memory","false","novel","true","","",""
"","null","html-keyboard-response","42","2.0.0","91590","pspg9qmve2h","crow","When a repeat item came up, I wasnt sure if my space bar press was registering. It wouldve been nice to have an indicator for that","null","<div style=""font-size:60px; color:black;"">+</div>","","","","","","","","","","",""
"","null","image-keyboard-response","43","2.0.0","94594","pspg9qmve2h","crow","When a repeat item came up, I wasnt sure if my space bar press was registering. It wouldve been nice to have an indicator for that","null","stimuli/organized/EXEMPLAR/USED/Eglobe1.jpg","","","","","memory","false","exemplar","true","","",""
"","null","html-keyboard-response","44","2.0.0","95597","pspg9qmve2h","crow","When a repeat item came up, I wasnt sure if my space bar press was registering. It wouldve been nice to have an indicator for that","null","<div style=""font-size:60px; color:black;"">+</div>","","","","","","","","","","",""
"","null","image-keyboard-response","45","2.0.0","98601","pspg9qmve2h","crow","When a repeat item came up, I wasnt sure if my space bar press was registering. It wouldve been nice to have an indicator for that","null","stimuli/organized/STATE/USED/Sflask2.jpg","","","","","memory","false","state","true","","",""
"","null","html-keyboard-response","46","2.0.0","99604","pspg9qmve2h","crow","When a repeat item came up, I wasnt sure if my space bar press was registering. It wouldve been nice to have an indicator for that","null","<div style=""font-size:60px; color:black;"">+</div>","","","","","","","","","","",""
"","null","image-keyboard-response","47","2.0.0","102607","pspg9qmve2h","crow","When a repeat item came up, I wasnt sure if my space bar press was registering. It wouldve been nice to have an indicator for that","null","stimuli/organized/EXEMPLAR/USED/Edispenser1.jpg","","","","","memory","false","exemplar","true","","",""
"","null","html-keyboard-response","48","2.0.0","103609","pspg9qmve2h","crow","When a repeat item came up, I wasnt sure if my space bar press was registering. It wouldve been nice to have an indicator for that","null","<div style=""font-size:60px; color:black;"">+</div>","","","","","","","","","","",""
"","null","image-keyboard-response","49","2.0.0","106613","pspg9qmve2h","crow","When a repeat item came up, I wasnt sure if my space bar press was registering. It wouldve been nice to have an indicator for that","null","stimuli/organized/EXEMPLAR/USED/Ecar2.jpg","","","","","memory","false","exemplar","true","","",""
"","null","html-keyboard-response","50","2.0.0","107615","pspg9qmve2h","crow","When a repeat item came up, I wasnt sure if my space bar press was registering. It wouldve been nice to have an indicator for that","null","<div style=""font-size:60px; color:black;"">+</div>","","","","","","","","","","",""
"","null","image-keyboard-response","51","2.0.0","110619","pspg9qmve2h","crow","When a repeat item came up, I wasnt sure if my space bar press was registering. It wouldve been nice to have an indicator for that","null","stimuli/organized/EXEMPLAR/USED/Echocolatebar1.jpg","","","","","memory","false","exemplar","true","","",""
"","null","html-keyboard-response","52","2.0.0","111622","pspg9qmve2h","crow","When a repeat item came up, I wasnt sure if my space bar press was registering. It wouldve been nice to have an indicator for that","null","<div style=""font-size:60px; color:black;"">+</div>","","","","","","","","","","",""
"","null","image-keyboard-response","53","2.0.0","114624","pspg9qmve2h","crow","When a repeat item came up, I wasnt sure if my space bar press was registering. It wouldve been nice to have an indicator for that","null","stimuli/organized/STATE/USED/Scontainer2.JPG","","","","","memory","false","state","true","","",""
"","null","html-keyboard-response","54","2.0.0","115627","pspg9qmve2h","crow","When a repeat item came up, I wasnt sure if my space bar press was registering. It wouldve been nice to have an indicator for that","null","<div style=""font-size:60px; color:black;"">+</div>","","","","","","","","","","",""
"","null","image-keyboard-response","55","2.0.0","118631","pspg9qmve2h","crow","When a repeat item came up, I wasnt sure if my space bar press was registering. It wouldve been nice to have an indicator for that","null","stimuli/organized/STATE/USED/Sdishes1.JPG","","","","","memory","false","state","true","","",""
"","null","html-keyboard-response","56","2.0.0","119634","pspg9qmve2h","crow","When a repeat item came up, I wasnt sure if my space bar press was registering. It wouldve been nice to have an indicator for that","null","<div style=""font-size:60px; color:black;"">+</div>","","","","","","","","","","",""
"","null","image-keyboard-response","57","2.0.0","122637","pspg9qmve2h","crow","When a repeat item came up, I wasnt sure if my space bar press was registering. It wouldve been nice to have an indicator for that","null","stimuli/organized/STATE/USED/Seggs1.jpg","","","","","memory","false","state","true","","",""
"","null","html-keyboard-response","58","2.0.0","123640","pspg9qmve2h","crow","When a repeat item came up, I wasnt sure if my space bar press was registering. It wouldve been nice to have an indicator for that","null","<div style=""font-size:60px; color:black;"">+</div>","","","","","","","","","","",""
"","null","image-keyboard-response","59","2.0.0","126643","pspg9qmve2h","crow","When a repeat item came up, I wasnt sure if my space bar press was registering. It wouldve been nice to have an indicator for that","null","stimuli/organized/Novel pairs (tested)/n10bturkey.jpg","","","","","memory","false","novel","true","","",""
"","null","html-keyboard-response","60","2.0.0","127646","pspg9qmve2h","crow","When a repeat item came up, I wasnt sure if my space bar press was registering. It wouldve been nice to have an indicator for that","null","<div style=""font-size:60px; color:black;"">+</div>","","","","","","","","","","",""
"","null","image-keyboard-response","61","2.0.0","130650","pspg9qmve2h","crow","When a repeat item came up, I wasnt sure if my space bar press was registering. It wouldve been nice to have an indicator for that","null","stimuli/organized/STATE/USED/Sbox1.jpg","","","","","memory","false","state","true","","",""
"","null","html-keyboard-response","62","2.0.0","131653","pspg9qmve2h","crow","When a repeat item came up, I wasnt sure if my space bar press was registering. It wouldve been nice to have an indicator for that","null","<div style=""font-size:60px; color:black;"">+</div>","","","","","","","","","","",""
"","null","image-keyboard-response","63","2.0.0","134656","pspg9qmve2h","crow","When a repeat item came up, I wasnt sure if my space bar press was registering. It wouldve been nice to have an indicator for that","null","stimuli/organized/STATE/USED/Sbreadbox1.JPG","","","","","memory","false","state","true","","",""
"","null","html-keyboard-response","64","2.0.0","135659","pspg9qmve2h","crow","When a repeat item came up, I wasnt sure if my space bar press was registering. It wouldve been nice to have an indicator for that","null","<div style=""font-size:60px; color:black;"">+</div>","","","","","","","","","","",""
"","null","image-keyboard-response","65","2.0.0","138662","pspg9qmve2h","crow","When a repeat item came up, I wasnt sure if my space bar press was registering. It wouldve been nice to have an indicator for that","null","stimuli/organized/Novel pairs (tested)/n09apenguin.jpg","","","","","memory","false","novel","true","","",""
"","null","html-keyboard-response","66","2.0.0","139665","pspg9qmve2h","crow","When a repeat item came up, I wasnt sure if my space bar press was registering. It wouldve been nice to have an indicator for that","null","<div style=""font-size:60px; color:black;"">+</div>","","","","","","","","","","",""
"","null","image-keyboard-response","67","2.0.0","142669","pspg9qmve2h","crow","When a repeat item came up, I wasnt sure if my space bar press was registering. It wouldve been nice to have an indicator for that","null","stimuli/organized/STATE/USED/Sabacus2.jpg","","","","","memory","false","state","true","","",""
"","null","html-keyboard-response","68","2.0.0","143672","pspg9qmve2h","crow","When a repeat item came up, I wasnt sure if my space bar press was registering. It wouldve been nice to have an indicator for that","null","<div style=""font-size:60px; color:black;"">+</div>","","","","","","","","","","",""
"","null","image-keyboard-response","69","2.0.0","146676","pspg9qmve2h","crow","When a repeat item came up, I wasnt sure if my space bar press was registering. It wouldve been nice to have an indicator for that","null","stimuli/organized/STATE/USED/Sdie1.jpg","","","","","memory","false","state","true","","",""
"","null","html-keyboard-response","70","2.0.0","147679","pspg9qmve2h","crow","When a repeat item came up, I wasnt sure if my space bar press was registering. It wouldve been nice to have an indicator for that","null","<div style=""font-size:60px; color:black;"">+</div>","","","","","","","","","","",""
"","null","image-keyboard-response","71","2.0.0","150683","pspg9qmve2h","crow","When a repeat item came up, I wasnt sure if my space bar press was registering. It wouldve been nice to have an indicator for that","null","stimuli/organized/Novel pairs (tested)/n11abatteries.jpg","","","","","memory","false","novel","true","","",""
"","null","html-keyboard-response","72","2.0.0","151686","pspg9qmve2h","crow","When a repeat item came up, I wasnt sure if my space bar press was registering. It wouldve been nice to have an indicator for that","null","<div style=""font-size:60px; color:black;"">+</div>","","","","","","","","","","",""
"","null","image-keyboard-response","73","2.0.0","154689","pspg9qmve2h","crow","When a repeat item came up, I wasnt sure if my space bar press was registering. It wouldve been nice to have an indicator for that","null","stimuli/organized/STATE/USED/Scoffeemaker2.JPG","","","","","memory","false","state","true","","",""
"","null","html-keyboard-response","74","2.0.0","155692","pspg9qmve2h","crow","When a repeat item came up, I wasnt sure if my space bar press was registering. It wouldve been nice to have an indicator for that","null","<div style=""font-size:60px; color:black;"">+</div>","","","","","","","","","","",""
"","null","image-keyboard-response","75","2.0.0","158696","pspg9qmve2h","crow","When a repeat item came up, I wasnt sure if my space bar press was registering. It wouldve been nice to have an indicator for that","null","stimuli/organized/STATE/USED/Sdryer1.jpg","","","","","memory","false","state","true","","",""
"","null","html-keyboard-response","76","2.0.0","159698","pspg9qmve2h","crow","When a repeat item came up, I wasnt sure if my space bar press was registering. It wouldve been nice to have an indicator for that","null","<div style=""font-size:60px; color:black;"">+</div>","","","","","","","","","","",""
"","null","image-keyboard-response","77","2.0.0","162702","pspg9qmve2h","crow","When a repeat item came up, I wasnt sure if my space bar press was registering. It wouldve been nice to have an indicator for that","null","stimuli/organized/STATE/USED/Sbelt2.jpg","","","","","memory","false","state","true","","",""
"","null","html-keyboard-response","78","2.0.0","163705","pspg9qmve2h","crow","When a repeat item came up, I wasnt sure if my space bar press was registering. It wouldve been nice to have an indicator for that","null","<div style=""font-size:60px; color:black;"">+</div>","","","","","","","","","","",""
"","null","image-keyboard-response","79","2.0.0","166708","pspg9qmve2h","crow","When a repeat item came up, I wasnt sure if my space bar press was registering. It wouldve been nice to have an indicator for that","null","stimuli/organized/Novel pairs (tested)/n12bwatch.jpg","","","","","memory","false","novel","true","","",""
"","null","html-keyboard-response","80","2.0.0","167711","pspg9qmve2h","crow","When a repeat item came up, I wasnt sure if my space bar press was registering. It wouldve been nice to have an indicator for that","null","<div style=""font-size:60px; color:black;"">+</div>","","","","","","","","","","",""
"","null","image-keyboard-response","81","2.0.0","170714","pspg9qmve2h","crow","When a repeat item came up, I wasnt sure if my space bar press was registering. It wouldve been nice to have an indicator for that","null","stimuli/organized/STATE/USED/Spie2.JPG","","","","","memory","false","state","true","","",""
"","null","html-keyboard-response","82","2.0.0","171717","pspg9qmve2h","crow","When a repeat item came up, I wasnt sure if my space bar press was registering. It wouldve been nice to have an indicator for that","null","<div style=""font-size:60px; color:black;"">+</div>","","","","","","","","","","",""
"","null","image-keyboard-response","83","2.0.0","174721","pspg9qmve2h","crow","When a repeat item came up, I wasnt sure if my space bar press was registering. It wouldve been nice to have an indicator for that","null","stimuli/organized/EXEMPLAR/USED/Ecalculator2.jpg","","","","","memory","false","exemplar","true","","",""
"","null","html-keyboard-response","84","2.0.0","175724","pspg9qmve2h","crow","When a repeat item came up, I wasnt sure if my space bar press was registering. It wouldve been nice to have an indicator for that","null","<div style=""font-size:60px; color:black;"">+</div>","","","","","","","","","","",""
"","null","image-keyboard-response","85","2.0.0","178727","pspg9qmve2h","crow","When a repeat item came up, I wasnt sure if my space bar press was registering. It wouldve been nice to have an indicator for that","null","stimuli/organized/Novel pairs (tested)/n07bswimmingpool.jpg","","","","","memory","false","novel","true","","",""
"","null","html-keyboard-response","86","2.0.0","179730","pspg9qmve2h","crow","When a repeat item came up, I wasnt sure if my space bar press was registering. It wouldve been nice to have an indicator for that","null","<div style=""font-size:60px; color:black;"">+</div>","","","","","","","","","","",""
"","null","image-keyboard-response","87","2.0.0","182733","pspg9qmve2h","crow","When a repeat item came up, I wasnt sure if my space bar press was registering. It wouldve been nice to have an indicator for that","null","stimuli/organized/STATE/USED/Sbriefcase2.jpg","","","","","memory","false","state","true","","",""
"","null","html-keyboard-response","88","2.0.0","183736","pspg9qmve2h","crow","When a repeat item came up, I wasnt sure if my space bar press was registering. It wouldve been nice to have an indicator for that","null","<div style=""font-size:60px; color:black;"">+</div>","","","","","","","","","","",""
"","null","image-keyboard-response","89","2.0.0","186740","pspg9qmve2h","crow","When a repeat item came up, I wasnt sure if my space bar press was registering. It wouldve been nice to have an indicator for that","null","stimuli/organized/STATE/USED/Sdresser2.jpg","","","","","memory","false","state","true","","",""
"","null","html-keyboard-response","90","2.0.0","187742","pspg9qmve2h","crow","When a repeat item came up, I wasnt sure if my space bar press was registering. It wouldve been nice to have an indicator for that","null","<div style=""font-size:60px; color:black;"">+</div>","","","","","","","","","","",""
"","null","image-keyboard-response","91","2.0.0","190746","pspg9qmve2h","crow","When a repeat item came up, I wasnt sure if my space bar press was registering. It wouldve been nice to have an indicator for that","null","stimuli/organized/EXEMPLAR/USED/Echisel1.jpg","","","","","memory","false","exemplar","true","","",""
"","null","html-keyboard-response","92","2.0.0","191749","pspg9qmve2h","crow","When a repeat item came up, I wasnt sure if my space bar press was registering. It wouldve been nice to have an indicator for that","null","<div style=""font-size:60px; color:black;"">+</div>","","","","","","","","","","",""
"","null","image-keyboard-response","93","2.0.0","194753","pspg9qmve2h","crow","When a repeat item came up, I wasnt sure if my space bar press was registering. It wouldve been nice to have an indicator for that","null","stimuli/organized/Novel pairs (tested)/n08bpaperclip.jpg","","","","","memory","false","novel","true","","",""
"","null","html-keyboard-response","94","2.0.0","195756","pspg9qmve2h","crow","When a repeat item came up, I wasnt sure if my space bar press was registering. It wouldve been nice to have an indicator for that","null","<div style=""font-size:60px; color:black;"">+</div>","","","","","","","","","","",""
"","null","image-keyboard-response","95","2.0.0","198760","pspg9qmve2h","crow","When a repeat item came up, I wasnt sure if my space bar press was registering. It wouldve been nice to have an indicator for that","null","stimuli/organized/STATE/USED/Sgrinder1.jpg","","","","","memory","false","state","true","","",""
"","null","html-keyboard-response","96","2.0.0","199762","pspg9qmve2h","crow","When a repeat item came up, I wasnt sure if my space bar press was registering. It wouldve been nice to have an indicator for that","null","<div style=""font-size:60px; color:black;"">+</div>","","","","","","","","","","",""
"","1146","image-keyboard-response","97","2.0.0","202766","pspg9qmve2h","crow","When a repeat item came up, I wasnt sure if my space bar press was registering. It wouldve been nice to have an indicator for that"," ","stimuli/organized/STATE/USED/Scontainer2.JPG","","","","","memory","true","state","true","","",""
"","null","html-keyboard-response","98","2.0.0","203768","pspg9qmve2h","crow","When a repeat item came up, I wasnt sure if my space bar press was registering. It wouldve been nice to have an indicator for that","null","<div style=""font-size:60px; color:green;"">+</div>","","","","","","","","","","",""
"","null","image-keyboard-response","99","2.0.0","206772","pspg9qmve2h","crow","When a repeat item came up, I wasnt sure if my space bar press was registering. It wouldve been nice to have an indicator for that","null","stimuli/organized/STATE/USED/Sbabytoy2.JPG","","","","","memory","false","state","true","","",""
"","null","html-keyboard-response","100","2.0.0","207775","pspg9qmve2h","crow","When a repeat item came up, I wasnt sure if my space bar press was registering. It wouldve been nice to have an indicator for that","null","<div style=""font-size:60px; color:black;"">+</div>","","","","","","","","","","",""
"","null","image-keyboard-response","101","2.0.0","210781","pspg9qmve2h","crow","When a repeat item came up, I wasnt sure if my space bar press was registering. It wouldve been nice to have an indicator for that","null","stimuli/organized/EXEMPLAR/USED/Efeather1.jpg","","","","","memory","false","exemplar","true","","",""
"","null","html-keyboard-response","102","2.0.0","211784","pspg9qmve2h","crow","When a repeat item came up, I wasnt sure if my space bar press was registering. It wouldve been nice to have an indicator for that","null","<div style=""font-size:60px; color:black;"">+</div>","","","","","","","","","","",""
"","null","image-keyboard-response","103","2.0.0","214790","pspg9qmve2h","crow","When a repeat item came up, I wasnt sure if my space bar press was registering. It wouldve been nice to have an indicator for that","null","stimuli/organized/Novel pairs (tested)/n02aaxe.jpg","","","","","memory","false","novel","true","","",""
"","null","html-keyboard-response","104","2.0.0","215792","pspg9qmve2h","crow","When a repeat item came up, I wasnt sure if my space bar press was registering. It wouldve been nice to have an indicator for that","null","<div style=""font-size:60px; color:black;"">+</div>","","","","","","","","","","",""
"","null","image-keyboard-response","105","2.0.0","218797","pspg9qmve2h","crow","When a repeat item came up, I wasnt sure if my space bar press was registering. It wouldve been nice to have an indicator for that","null","stimuli/organized/Novel pairs (tested)/n13ablueberries.jpg","","","","","memory","false","novel","true","","",""
"","null","html-keyboard-response","106","2.0.0","219800","pspg9qmve2h","crow","When a repeat item came up, I wasnt sure if my space bar press was registering. It wouldve been nice to have an indicator for that","null","<div style=""font-size:60px; color:black;"">+</div>","","","","","","","","","","",""
"","null","image-keyboard-response","107","2.0.0","222804","pspg9qmve2h","crow","When a repeat item came up, I wasnt sure if my space bar press was registering. It wouldve been nice to have an indicator for that","null","stimuli/organized/Novel pairs (tested)/n18apretzel.jpg","","","","","memory","false","novel","true","","",""
"","null","html-keyboard-response","108","2.0.0","223807","pspg9qmve2h","crow","When a repeat item came up, I wasnt sure if my space bar press was registering. It wouldve been nice to have an indicator for that","null","<div style=""font-size:60px; color:black;"">+</div>","","","","","","","","","","",""
"","null","image-keyboard-response","109","2.0.0","226812","pspg9qmve2h","crow","When a repeat item came up, I wasnt sure if my space bar press was registering. It wouldve been nice to have an indicator for that","null","stimuli/organized/STATE/USED/Sbrushes2.jpg","","","","","memory","false","state","true","","",""
"","null","html-keyboard-response","110","2.0.0","227815","pspg9qmve2h","crow","When a repeat item came up, I wasnt sure if my space bar press was registering. It wouldve been nice to have an indicator for that","null","<div style=""font-size:60px; color:black;"">+</div>","","","","","","","","","","",""
"","null","image-keyboard-response","111","2.0.0","230819","pspg9qmve2h","crow","When a repeat item came up, I wasnt sure if my space bar press was registering. It wouldve been nice to have an indicator for that","null","stimuli/organized/STATE/USED/Sgiftbox2.jpg","","","","","memory","false","state","true","","",""
"","null","html-keyboard-response","112","2.0.0","231822","pspg9qmve2h","crow","When a repeat item came up, I wasnt sure if my space bar press was registering. It wouldve been nice to have an indicator for that","null","<div style=""font-size:60px; color:black;"">+</div>","","","","","","","","","","",""
"","null","image-keyboard-response","113","2.0.0","234826","pspg9qmve2h","crow","When a repeat item came up, I wasnt sure if my space bar press was registering. It wouldve been nice to have an indicator for that","null","stimuli/organized/STATE/USED/Sapplesgreenbasket1.jpg","","","","","memory","false","state","true","","",""
"","null","html-keyboard-response","114","2.0.0","235829","pspg9qmve2h","crow","When a repeat item came up, I wasnt sure if my space bar press was registering. It wouldve been nice to have an indicator for that","null","<div style=""font-size:60px; color:black;"">+</div>","","","","","","","","","","",""
"","null","image-keyboard-response","115","2.0.0","238834","pspg9qmve2h","crow","When a repeat item came up, I wasnt sure if my space bar press was registering. It wouldve been nice to have an indicator for that","null","stimuli/organized/STATE/USED/Sfiretrucktoy1.jpg","","","","","memory","false","state","true","","",""
"","null","html-keyboard-response","116","2.0.0","239837","pspg9qmve2h","crow","When a repeat item came up, I wasnt sure if my space bar press was registering. It wouldve been nice to have an indicator for that","null","<div style=""font-size:60px; color:black;"">+</div>","","","","","","","","","","",""
"","null","image-keyboard-response","117","2.0.0","242841","pspg9qmve2h","crow","When a repeat item came up, I wasnt sure if my space bar press was registering. It wouldve been nice to have an indicator for that","null","stimuli/organized/STATE/USED/Sgiftbag2.jpg","","","","","memory","false","state","true","","",""
"","null","html-keyboard-response","118","2.0.0","243842","pspg9qmve2h","crow","When a repeat item came up, I wasnt sure if my space bar press was registering. It wouldve been nice to have an indicator for that","null","<div style=""font-size:60px; color:black;"">+</div>","","","","","","","","","","",""
"","null","image-keyboard-response","119","2.0.0","246846","pspg9qmve2h","crow","When a repeat item came up, I wasnt sure if my space bar press was registering. It wouldve been nice to have an indicator for that","null","stimuli/organized/Novel pairs (tested)/n04ayarn.jpg","","","","","memory","false","novel","true","","",""
"","null","html-keyboard-response","120","2.0.0","247849","pspg9qmve2h","crow","When a repeat item came up, I wasnt sure if my space bar press was registering. It wouldve been nice to have an indicator for that","null","<div style=""font-size:60px; color:black;"">+</div>","","","","","","","","","","",""
"","null","image-keyboard-response","121","2.0.0","250852","pspg9qmve2h","crow","When a repeat item came up, I wasnt sure if my space bar press was registering. It wouldve been nice to have an indicator for that","null","stimuli/organized/STATE/USED/Sbooks1.JPG","","","","","memory","false","state","true","","",""
"","null","html-keyboard-response","122","2.0.0","251855","pspg9qmve2h","crow","When a repeat item came up, I wasnt sure if my space bar press was registering. It wouldve been nice to have an indicator for that","null","<div style=""font-size:60px; color:black;"">+</div>","","","","","","","","","","",""
"","null","image-keyboard-response","123","2.0.0","254858","pspg9qmve2h","crow","When a repeat item came up, I wasnt sure if my space bar press was registering. It wouldve been nice to have an indicator for that","null","stimuli/organized/STATE/USED/Shairbrush1.jpg","","","","","memory","false","state","true","","",""
"","null","html-keyboard-response","124","2.0.0","255862","pspg9qmve2h","crow","When a repeat item came up, I wasnt sure if my space bar press was registering. It wouldve been nice to have an indicator for that","null","<div style=""font-size:60px; color:black;"">+</div>","","","","","","","","","","",""
"","null","image-keyboard-response","125","2.0.0","258866","pspg9qmve2h","crow","When a repeat item came up, I wasnt sure if my space bar press was registering. It wouldve been nice to have an indicator for that","null","stimuli/organized/Novel pairs (tested)/n05abarrel.jpg","","","","","memory","false","novel","true","","",""
"","null","html-keyboard-response","126","2.0.0","259869","pspg9qmve2h","crow","When a repeat item came up, I wasnt sure if my space bar press was registering. It wouldve been nice to have an indicator for that","null","<div style=""font-size:60px; color:black;"">+</div>","","","","","","","","","","",""
"","null","image-keyboard-response","127","2.0.0","262873","pspg9qmve2h","crow","When a repeat item came up, I wasnt sure if my space bar press was registering. It wouldve been nice to have an indicator for that","null","stimuli/organized/STATE/USED/Sbureau1.JPG","","","","","memory","false","state","true","","",""
"","null","html-keyboard-response","128","2.0.0","263876","pspg9qmve2h","crow","When a repeat item came up, I wasnt sure if my space bar press was registering. It wouldve been nice to have an indicator for that","null","<div style=""font-size:60px; color:black;"">+</div>","","","","","","","","","","",""
"","null","image-keyboard-response","129","2.0.0","266880","pspg9qmve2h","crow","When a repeat item came up, I wasnt sure if my space bar press was registering. It wouldve been nice to have an indicator for that","null","stimuli/organized/Novel pairs (tested)/n20bshelf.jpg","","","","","memory","false","novel","true","","",""
"","null","html-keyboard-response","130","2.0.0","267883","pspg9qmve2h","crow","When a repeat item came up, I wasnt sure if my space bar press was registering. It wouldve been nice to have an indicator for that","null","<div style=""font-size:60px; color:black;"">+</div>","","","","","","","","","","",""
"","null","image-keyboard-response","131","2.0.0","270887","pspg9qmve2h","crow","When a repeat item came up, I wasnt sure if my space bar press was registering. It wouldve been nice to have an indicator for that","null","stimuli/organized/EXEMPLAR/USED/Ebicycle2.jpg","","","","","memory","false","exemplar","true","","",""
"","null","html-keyboard-response","132","2.0.0","271890","pspg9qmve2h","crow","When a repeat item came up, I wasnt sure if my space bar press was registering. It wouldve been nice to have an indicator for that","null","<div style=""font-size:60px; color:black;"">+</div>","","","","","","","","","","",""
"","null","image-keyboard-response","133","2.0.0","274894","pspg9qmve2h","crow","When a repeat item came up, I wasnt sure if my space bar press was registering. It wouldve been nice to have an indicator for that","null","stimuli/organized/STATE/USED/Sdrum1.jpg","","","","","memory","false","state","true","","",""
"","null","html-keyboard-response","134","2.0.0","275897","pspg9qmve2h","crow","When a repeat item came up, I wasnt sure if my space bar press was registering. It wouldve been nice to have an indicator for that","null","<div style=""font-size:60px; color:black;"">+</div>","","","","","","","","","","",""
"","null","image-keyboard-response","135","2.0.0","278901","pspg9qmve2h","crow","When a repeat item came up, I wasnt sure if my space bar press was registering. It wouldve been nice to have an indicator for that","null","stimuli/organized/EXEMPLAR/USED/Egame2.jpg","","","","","memory","false","exemplar","true","","",""
"","null","html-keyboard-response","136","2.0.0","279904","pspg9qmve2h","crow","When a repeat item came up, I wasnt sure if my space bar press was registering. It wouldve been nice to have an indicator for that","null","<div style=""font-size:60px; color:black;"">+</div>","","","","","","","","","","",""
"","793","image-keyboard-response","137","2.0.0","282908","pspg9qmve2h","crow","When a repeat item came up, I wasnt sure if my space bar press was registering. It wouldve been nice to have an indicator for that"," ","stimuli/organized/STATE/USED/Sdie1.jpg","","","","","memory","true","state","true","","",""
"","null","html-keyboard-response","138","2.0.0","283910","pspg9qmve2h","crow","When a repeat item came up, I wasnt sure if my space bar press was registering. It wouldve been nice to have an indicator for that","null","<div style=""font-size:60px; color:green;"">+</div>","","","","","","","","","","",""
"","null","image-keyboard-response","139","2.0.0","286914","pspg9qmve2h","crow","When a repeat item came up, I wasnt sure if my space bar press was registering. It wouldve been nice to have an indicator for that","null","stimuli/organized/STATE/USED/Sjuiceglass1.JPG","","","","","memory","false","state","true","","",""
"","null","html-keyboard-response","140","2.0.0","287916","pspg9qmve2h","crow","When a repeat item came up, I wasnt sure if my space bar press was registering. It wouldve been nice to have an indicator for that","null","<div style=""font-size:60px; color:black;"">+</div>","","","","","","","","","","",""
"","null","image-keyboard-response","141","2.0.0","290920","pspg9qmve2h","crow","When a repeat item came up, I wasnt sure if my space bar press was registering. It wouldve been nice to have an indicator for that","null","stimuli/organized/STATE/USED/Scookies2.JPG","","","","","memory","false","state","true","","",""
"","null","html-keyboard-response","142","2.0.0","291923","pspg9qmve2h","crow","When a repeat item came up, I wasnt sure if my space bar press was registering. It wouldve been nice to have an indicator for that","null","<div style=""font-size:60px; color:black;"">+</div>","","","","","","","","","","",""
"","null","image-keyboard-response","143","2.0.0","294926","pspg9qmve2h","crow","When a repeat item came up, I wasnt sure if my space bar press was registering. It wouldve been nice to have an indicator for that","null","stimuli/organized/EXEMPLAR/USED/Ebread2.jpg","","","","","memory","false","exemplar","true","","",""
"","null","html-keyboard-response","144","2.0.0","295928","pspg9qmve2h","crow","When a repeat item came up, I wasnt sure if my space bar press was registering. It wouldve been nice to have an indicator for that","null","<div style=""font-size:60px; color:black;"">+</div>","","","","","","","","","","",""
"","null","image-keyboard-response","145","2.0.0","298932","pspg9qmve2h","crow","When a repeat item came up, I wasnt sure if my space bar press was registering. It wouldve been nice to have an indicator for that","null","stimuli/organized/EXEMPLAR/USED/Egrapes1.jpg","","","","","memory","false","exemplar","true","","",""
"","null","html-keyboard-response","146","2.0.0","299935","pspg9qmve2h","crow","When a repeat item came up, I wasnt sure if my space bar press was registering. It wouldve been nice to have an indicator for that","null","<div style=""font-size:60px; color:black;"">+</div>","","","","","","","","","","",""
"","null","image-keyboard-response","147","2.0.0","302938","pspg9qmve2h","crow","When a repeat item came up, I wasnt sure if my space bar press was registering. It wouldve been nice to have an indicator for that","null","stimuli/organized/EXEMPLAR/USED/Eframe2.jpg","","","","","memory","false","exemplar","true","","",""
"","null","html-keyboard-response","148","2.0.0","303942","pspg9qmve2h","crow","When a repeat item came up, I wasnt sure if my space bar press was registering. It wouldve been nice to have an indicator for that","null","<div style=""font-size:60px; color:black;"">+</div>","","","","","","","","","","",""
"","1747","image-keyboard-response","149","2.0.0","306945","pspg9qmve2h","crow","When a repeat item came up, I wasnt sure if my space bar press was registering. It wouldve been nice to have an indicator for that"," ","stimuli/organized/Novel pairs (tested)/n05abarrel.jpg","","","","","memory","true","novel","true","","",""
"","null","html-keyboard-response","150","2.0.0","307949","pspg9qmve2h","crow","When a repeat item came up, I wasnt sure if my space bar press was registering. It wouldve been nice to have an indicator for that","null","<div style=""font-size:60px; color:green;"">+</div>","","","","","","","","","","",""
"","null","image-keyboard-response","151","2.0.0","310952","pspg9qmve2h","crow","When a repeat item came up, I wasnt sure if my space bar press was registering. It wouldve been nice to have an indicator for that","null","stimuli/organized/STATE/USED/Sdonut1.jpg","","","","","memory","false","state","true","","",""
"","null","html-keyboard-response","152","2.0.0","311955","pspg9qmve2h","crow","When a repeat item came up, I wasnt sure if my space bar press was registering. It wouldve been nice to have an indicator for that","null","<div style=""font-size:60px; color:black;"">+</div>","","","","","","","","","","",""
"","null","image-keyboard-response","153","2.0.0","314959","pspg9qmve2h","crow","When a repeat item came up, I wasnt sure if my space bar press was registering. It wouldve been nice to have an indicator for that","null","stimuli/organized/STATE/USED/Sscanner2.JPG","","","","","memory","false","state","true","","",""
"","null","html-keyboard-response","154","2.0.0","315962","pspg9qmve2h","crow","When a repeat item came up, I wasnt sure if my space bar press was registering. It wouldve been nice to have an indicator for that","null","<div style=""font-size:60px; color:black;"">+</div>","","","","","","","","","","",""
"","null","image-keyboard-response","155","2.0.0","318966","pspg9qmve2h","crow","When a repeat item came up, I wasnt sure if my space bar press was registering. It wouldve been nice to have an indicator for that","null","stimuli/organized/STATE/USED/Sphone1.JPG","","","","","memory","false","state","true","","",""
"","null","html-keyboard-response","156","2.0.0","319969","pspg9qmve2h","crow","When a repeat item came up, I wasnt sure if my space bar press was registering. It wouldve been nice to have an indicator for that","null","<div style=""font-size:60px; color:black;"">+</div>","","","","","","","","","","",""
"","null","image-keyboard-response","157","2.0.0","322973","pspg9qmve2h","crow","When a repeat item came up, I wasnt sure if my space bar press was registering. It wouldve been nice to have an indicator for that","null","stimuli/organized/Novel pairs (tested)/n14acigarette.jpg","","","","","memory","false","novel","true","","",""
"","null","html-keyboard-response","158","2.0.0","323976","pspg9qmve2h","crow","When a repeat item came up, I wasnt sure if my space bar press was registering. It wouldve been nice to have an indicator for that","null","<div style=""font-size:60px; color:black;"">+</div>","","","","","","","","","","",""
"","764","image-keyboard-response","159","2.0.0","326979","pspg9qmve2h","crow","When a repeat item came up, I wasnt sure if my space bar press was registering. It wouldve been nice to have an indicator for that"," ","stimuli/organized/STATE/USED/Sfiretrucktoy1.jpg","","","","","memory","true","state","true","","",""
"","null","html-keyboard-response","160","2.0.0","327981","pspg9qmve2h","crow","When a repeat item came up, I wasnt sure if my space bar press was registering. It wouldve been nice to have an indicator for that","null","<div style=""font-size:60px; color:green;"">+</div>","","","","","","","","","","",""
"","null","image-keyboard-response","161","2.0.0","330985","pspg9qmve2h","crow","When a repeat item came up, I wasnt sure if my space bar press was registering. It wouldve been nice to have an indicator for that","null","stimuli/organized/EXEMPLAR/USED/Ebasket2.jpg","","","","","memory","false","exemplar","true","","",""
"","null","html-keyboard-response","162","2.0.0","331988","pspg9qmve2h","crow","When a repeat item came up, I wasnt sure if my space bar press was registering. It wouldve been nice to have an indicator for that","null","<div style=""font-size:60px; color:black;"">+</div>","","","","","","","","","","",""
"","null","image-keyboard-response","163","2.0.0","334991","pspg9qmve2h","crow","When a repeat item came up, I wasnt sure if my space bar press was registering. It wouldve been nice to have an indicator for that","null","stimuli/organized/EXEMPLAR/USED/Econe2.jpg","","","","","memory","false","exemplar","true","","",""
"","null","html-keyboard-response","164","2.0.0","335993","pspg9qmve2h","crow","When a repeat item came up, I wasnt sure if my space bar press was registering. It wouldve been nice to have an indicator for that","null","<div style=""font-size:60px; color:black;"">+</div>","","","","","","","","","","",""
"","835","image-keyboard-response","165","2.0.0","338997","pspg9qmve2h","crow","When a repeat item came up, I wasnt sure if my space bar press was registering. It wouldve been nice to have an indicator for that"," ","stimuli/organized/STATE/USED/Sapplesgreenbasket1.jpg","","","","","memory","true","state","true","","",""
"","5340","html-button-response","166","2.0.0","344340","pspg9qmve2h","crow","When a repeat item came up, I wasnt sure if my space bar press was registering. It wouldve been nice to have an indicator for that","0","<p>You have completed the study phase.</p><p>Take a short break. Press the button below when you are ready to continue.</p>","","","","","","","","","","",""
"","6178","html-keyboard-response","167","2.0.0","350519","pspg9qmve2h","crow","When a repeat item came up, I wasnt sure if my space bar press was registering. It wouldve been nice to have an indicator for that"," ","<p>You will now be shown pairs of images.</p><p>Select the image you remember seeing during the study phase.</p><p>Focus on accuracy, not speed.</p><p>Press any key to begin.</p>","","","","","","","","","","",""
"","1218","html-button-response","168","2.0.0","351738","pspg9qmve2h","crow","When a repeat item came up, I wasnt sure if my space bar press was registering. It wouldve been nice to have an indicator for that","1","Which of these items did you see earlier?","","","","","test","","state","true","stimuli/organized/STATE/USED/Sdishes1.JPG","stimuli/organized/STATE/USED/Sdishes2.JPG","1"
"","1149","html-button-response","169","2.0.0","352888","pspg9qmve2h","crow","When a repeat item came up, I wasnt sure if my space bar press was registering. It wouldve been nice to have an indicator for that","1","Which of these items did you see earlier?","","","","","test","","state","true","stimuli/organized/STATE/USED/Sbureau1.JPG","stimuli/organized/STATE/USED/Sbureau2.JPG","1"
"","1134","html-button-response","170","2.0.0","354024","pspg9qmve2h","crow","When a repeat item came up, I wasnt sure if my space bar press was registering. It wouldve been nice to have an indicator for that","1","Which of these items did you see earlier?","","","","","test","","state","true","stimuli/organized/STATE/USED/Sbreadbox1.JPG","stimuli/organized/STATE/USED/Sbreadbox2.JPG","1"
"","1379","html-button-response","171","2.0.0","355405","pspg9qmve2h","crow","When a repeat item came up, I wasnt sure if my space bar press was registering. It wouldve been nice to have an indicator for that","0","Which of these items did you see earlier?","","","","","test","","state","true","stimuli/organized/STATE/USED/Sflask2.jpg","stimuli/organized/STATE/USED/Sflask1.jpg","0"
"","884","html-button-response","172","2.0.0","356290","pspg9qmve2h","crow","When a repeat item came up, I wasnt sure if my space bar press was registering. It wouldve been nice to have an indicator for that","1","Which of these items did you see earlier?","","","","","test","","state","true","stimuli/organized/STATE/USED/Slaptop1.JPG","stimuli/organized/STATE/USED/Slaptop2.JPG","1"
"","1113","html-button-response","173","2.0.0","357406","pspg9qmve2h","crow","When a repeat item came up, I wasnt sure if my space bar press was registering. It wouldve been nice to have an indicator for that","1","Which of these items did you see earlier?","","","","","test","","exemplar","true","stimuli/organized/EXEMPLAR/USED/Egame2.jpg","stimuli/organized/EXEMPLAR/USED/Egame1.jpg","1"
"","3282","html-button-response","174","2.0.0","360690","pspg9qmve2h","crow","When a repeat item came up, I wasnt sure if my space bar press was registering. It wouldve been nice to have an indicator for that","1","Which of these items did you see earlier?","","","","","test","","state","true","stimuli/organized/STATE/USED/Seggs1.jpg","stimuli/organized/STATE/USED/Seggs2.jpg","1"
"","1198","html-button-response","175","2.0.0","361890","pspg9qmve2h","crow","When a repeat item came up, I wasnt sure if my space bar press was registering. It wouldve been nice to have an indicator for that","1","Which of these items did you see earlier?","","","","","test","","state","true","stimuli/organized/STATE/USED/Sabacus2.jpg","stimuli/organized/STATE/USED/Sabacus1.jpg","1"
"","1431","html-button-response","176","2.0.0","363323","pspg9qmve2h","crow","When a repeat item came up, I wasnt sure if my space bar press was registering. It wouldve been nice to have an indicator for that","0","Which of these items did you see earlier?","","","","","test","","exemplar","true","stimuli/organized/EXEMPLAR/USED/Egrapes1.jpg","stimuli/organized/EXEMPLAR/USED/Egrapes2.jpg","0"
"","881","html-button-response","177","2.0.0","364206","pspg9qmve2h","crow","When a repeat item came up, I wasnt sure if my space bar press was registering. It wouldve been nice to have an indicator for that","1","Which of these items did you see earlier?","","","","","test","","exemplar","true","stimuli/organized/EXEMPLAR/USED/Echocolatebar1.jpg","stimuli/organized/EXEMPLAR/USED/Echocolatebar2.jpg","1"
"","1181","html-button-response","178","2.0.0","365389","pspg9qmve2h","crow","When a repeat item came up, I wasnt sure if my space bar press was registering. It wouldve been nice to have an indicator for that","1","Which of these items did you see earlier?","","","","","test","","state","true","stimuli/organized/STATE/USED/Sphone1.JPG","stimuli/organized/STATE/USED/Sphone2.JPG","1"
"","1566","html-button-response","179","2.0.0","366956","pspg9qmve2h","crow","When a repeat item came up, I wasnt sure if my space bar press was registering. It wouldve been nice to have an indicator for that","0","Which of these items did you see earlier?","","","","","test","","state","true","stimuli/organized/STATE/USED/Scookies2.JPG","stimuli/organized/STATE/USED/Scookies1.JPG","0"
"","996","html-button-response","180","2.0.0","367954","pspg9qmve2h","crow","When a repeat item came up, I wasnt sure if my space bar press was registering. It wouldve been nice to have an indicator for that","1","Which of these items did you see earlier?","","","","","test","","state","true","stimuli/organized/STATE/USED/Sgrinder1.jpg","stimuli/organized/STATE/USED/Sgrinder2.jpg","1"
"","833","html-button-response","181","2.0.0","368788","pspg9qmve2h","crow","When a repeat item came up, I wasnt sure if my space bar press was registering. It wouldve been nice to have an indicator for that","1","Which of these items did you see earlier?","","","","","test","","exemplar","true","stimuli/organized/EXEMPLAR/USED/Econe2.jpg","stimuli/organized/EXEMPLAR/USED/Econe1.jpg","1"
"","1550","html-button-response","182","2.0.0","370340","pspg9qmve2h","crow","When a repeat item came up, I wasnt sure if my space bar press was registering. It wouldve been nice to have an indicator for that","1","Which of these items did you see earlier?","","","","","test","","exemplar","true","stimuli/organized/EXEMPLAR/USED/Ecar2.jpg","stimuli/organized/EXEMPLAR/USED/Ecar1.jpg","1"
"","1046","html-button-response","183","2.0.0","371388","pspg9qmve2h","crow","When a repeat item came up, I wasnt sure if my space bar press was registering. It wouldve been nice to have an indicator for that","1","Which of these items did you see earlier?","","","","","test","","state","false","stimuli/organized/STATE/USED/Sbottles2.JPG","stimuli/organized/STATE/USED/Sbottles1.JPG","0"
"","982","html-button-response","184","2.0.0","372372","pspg9qmve2h","crow","When a repeat item came up, I wasnt sure if my space bar press was registering. It wouldve been nice to have an indicator for that","0","Which of these items did you see earlier?","","","","","test","","state","true","stimuli/organized/STATE/USED/Sbelt2.jpg","stimuli/organized/STATE/USED/Sbelt1.jpg","0"
"","1082","html-button-response","185","2.0.0","373456","pspg9qmve2h","crow","When a repeat item came up, I wasnt sure if my space bar press was registering. It wouldve been nice to have an indicator for that","0","Which of these items did you see earlier?","","","","","test","","novel","true","stimuli/organized/Novel pairs (tested)/n09apenguin.jpg","stimuli/organized/Novel pairs (tested)/n09bsaddle.jpg","0"
"","881","html-button-response","186","2.0.0","374340","pspg9qmve2h","crow","When a repeat item came up, I wasnt sure if my space bar press was registering. It wouldve been nice to have an indicator for that","1","Which of these items did you see earlier?","","","","","test","","state","true","stimuli/organized/STATE/USED/Sdonut1.jpg","stimuli/organized/STATE/USED/Sdonut2.jpg","1"
"","1148","html-button-response","187","2.0.0","375490","pspg9qmve2h","crow","When a repeat item came up, I wasnt sure if my space bar press was registering. It wouldve been nice to have an indicator for that","0","Which of these items did you see earlier?","","","","","test","","exemplar","true","stimuli/organized/EXEMPLAR/USED/Ecalculator2.jpg","stimuli/organized/EXEMPLAR/USED/Ecalculator1.jpg","0"
"","2115","html-button-response","188","2.0.0","377606","pspg9qmve2h","crow","When a repeat item came up, I wasnt sure if my space bar press was registering. It wouldve been nice to have an indicator for that","1","Which of these items did you see earlier?","","","","","test","","state","true","stimuli/organized/STATE/USED/Sdie1.jpg","stimuli/organized/STATE/USED/Sdie2.jpg","1"
"","2181","html-button-response","189","2.0.0","379789","pspg9qmve2h","crow","When a repeat item came up, I wasnt sure if my space bar press was registering. It wouldve been nice to have an indicator for that","1","Which of these items did you see earlier?","","","","","test","","state","true","stimuli/organized/STATE/USED/Sfiretrucktoy1.jpg","stimuli/organized/STATE/USED/Sfiretrucktoy2.jpg","1"
"","1182","html-button-response","190","2.0.0","380973","pspg9qmve2h","crow","When a repeat item came up, I wasnt sure if my space bar press was registering. It wouldve been nice to have an indicator for that","0","Which of these items did you see earlier?","","","","","test","","exemplar","true","stimuli/organized/EXEMPLAR/USED/Edispenser1.jpg","stimuli/organized/EXEMPLAR/USED/Edispenser2.jpg","0"
"","1065","html-button-response","191","2.0.0","382040","pspg9qmve2h","crow","When a repeat item came up, I wasnt sure if my space bar press was registering. It wouldve been nice to have an indicator for that","1","Which of these items did you see earlier?","","","","","test","","state","true","stimuli/organized/STATE/USED/Sscissors2.JPG","stimuli/organized/STATE/USED/Sscissors1.JPG","1"
"","931","html-button-response","192","2.0.0","382973","pspg9qmve2h","crow","When a repeat item came up, I wasnt sure if my space bar press was registering. It wouldve been nice to have an indicator for that","1","Which of these items did you see earlier?","","","","","test","","novel","true","stimuli/organized/Novel pairs (tested)/n15aspiderweb.jpg","stimuli/organized/Novel pairs (tested)/n15bfootball.jpg","1"
"","1197","html-button-response","193","2.0.0","384172","pspg9qmve2h","crow","When a repeat item came up, I wasnt sure if my space bar press was registering. It wouldve been nice to have an indicator for that","0","Which of these items did you see earlier?","","","","","test","","exemplar","true","stimuli/organized/EXEMPLAR/USED/Egoggles2.jpg","stimuli/organized/EXEMPLAR/USED/Egoggles1.jpg","0"
"","849","html-button-response","194","2.0.0","385023","pspg9qmve2h","crow","When a repeat item came up, I wasnt sure if my space bar press was registering. It wouldve been nice to have an indicator for that","1","Which of these items did you see earlier?","","","","","test","","novel","true","stimuli/organized/Novel pairs (tested)/n01bcoin.jpg","stimuli/organized/Novel pairs (tested)/n01aladybug.jpg","1"
"","981","html-button-response","195","2.0.0","386005","pspg9qmve2h","crow","When a repeat item came up, I wasnt sure if my space bar press was registering. It wouldve been nice to have an indicator for that","0","Which of these items did you see earlier?","","","","","test","","state","true","stimuli/organized/STATE/USED/Sjuiceglass1.JPG","stimuli/organized/STATE/USED/Sjuiceglass2.JPG","0"
"","882","html-button-response","196","2.0.0","386890","pspg9qmve2h","crow","When a repeat item came up, I wasnt sure if my space bar press was registering. It wouldve been nice to have an indicator for that","1","Which of these items did you see earlier?","","","","","test","","state","true","stimuli/organized/STATE/USED/Scrayons1.jpg","stimuli/organized/STATE/USED/Scrayons2.jpg","1"
"","1214","html-button-response","197","2.0.0","388105","pspg9qmve2h","crow","When a repeat item came up, I wasnt sure if my space bar press was registering. It wouldve been nice to have an indicator for that","1","Which of these items did you see earlier?","","","","","test","","novel","true","stimuli/organized/Novel pairs (tested)/n04ayarn.jpg","stimuli/organized/Novel pairs (tested)/n04bbandaid.jpg","1"
"","2882","html-button-response","198","2.0.0","390989","pspg9qmve2h","crow","When a repeat item came up, I wasnt sure if my space bar press was registering. It wouldve been nice to have an indicator for that","1","Which of these items did you see earlier?","","","","","test","","state","true","stimuli/organized/STATE/USED/Sdrum1.jpg","stimuli/organized/STATE/USED/Sdrum2.jpg","1"
"","1365","html-button-response","199","2.0.0","392356","pspg9qmve2h","crow","When a repeat item came up, I wasnt sure if my space bar press was registering. It wouldve been nice to have an indicator for that","0","Which of these items did you see earlier?","","","","","test","","state","true","stimuli/organized/STATE/USED/Sbrushes2.jpg","stimuli/organized/STATE/USED/Sbrushes1.jpg","0"
"","981","html-button-response","200","2.0.0","393339","pspg9qmve2h","crow","When a repeat item came up, I wasnt sure if my space bar press was registering. It wouldve been nice to have an indicator for that","0","Which of these items did you see earlier?","","","","","test","","exemplar","true","stimuli/organized/EXEMPLAR/USED/Eframe2.jpg","stimuli/organized/EXEMPLAR/USED/Eframe1.jpg","0"
"","899","html-button-response","201","2.0.0","394240","pspg9qmve2h","crow","When a repeat item came up, I wasnt sure if my space bar press was registering. It wouldve been nice to have an indicator for that","1","Which of these items did you see earlier?","","","","","test","","state","true","stimuli/organized/STATE/USED/Spie2.JPG","stimuli/organized/STATE/USED/Spie1.JPG","1"
"","1015","html-button-response","202","2.0.0","395256","pspg9qmve2h","crow","When a repeat item came up, I wasnt sure if my space bar press was registering. It wouldve been nice to have an indicator for that","0","Which of these items did you see earlier?","","","","","test","","novel","true","stimuli/organized/Novel pairs (tested)/n18apretzel.jpg","stimuli/organized/Novel pairs (tested)/n18bsnail.jpg","0"
"","2880","html-button-response","203","2.0.0","398138","pspg9qmve2h","crow","When a repeat item came up, I wasnt sure if my space bar press was registering. It wouldve been nice to have an indicator for that","1","Which of these items did you see earlier?","","","","","test","","novel","true","stimuli/organized/Novel pairs (tested)/n08bpaperclip.jpg","stimuli/organized/Novel pairs (tested)/n08aoven.jpg","1"
"","2618","html-button-response","204","2.0.0","400757","pspg9qmve2h","crow","When a repeat item came up, I wasnt sure if my space bar press was registering. It wouldve been nice to have an indicator for that","1","Which of these items did you see earlier?","","","","","test","","novel","true","stimuli/organized/Novel pairs (tested)/n11abatteries.jpg","stimuli/organized/Novel pairs (tested)/n11bsock.jpg","1"
"","1364","html-button-response","205","2.0.0","402122","pspg9qmve2h","crow","When a repeat item came up, I wasnt sure if my space bar press was registering. It wouldve been nice to have an indicator for that","0","Which of these items did you see earlier?","","","","","test","","novel","true","stimuli/organized/Novel pairs (tested)/n10bturkey.jpg","stimuli/organized/Novel pairs (tested)/n10awindmill.jpg","0"
"","901","html-button-response","206","2.0.0","403024","pspg9qmve2h","crow","When a repeat item came up, I wasnt sure if my space bar press was registering. It wouldve been nice to have an indicator for that","1","Which of these items did you see earlier?","","","","","test","","exemplar","true","stimuli/organized/EXEMPLAR/USED/Ebasket2.jpg","stimuli/organized/EXEMPLAR/USED/Ebasket1.jpg","1"
"","1231","html-button-response","207","2.0.0","404257","pspg9qmve2h","crow","When a repeat item came up, I wasnt sure if my space bar press was registering. It wouldve been nice to have an indicator for that","0","Which of these items did you see earlier?","","","","","test","","state","true","stimuli/organized/STATE/USED/Sgiftbag2.jpg","stimuli/organized/STATE/USED/Sgiftbag1.jpg","0"
"","1182","html-button-response","208","2.0.0","405441","pspg9qmve2h","crow","When a repeat item came up, I wasnt sure if my space bar press was registering. It wouldve been nice to have an indicator for that","0","Which of these items did you see earlier?","","","","","test","","novel","true","stimuli/organized/Novel pairs (tested)/n02aaxe.jpg","stimuli/organized/Novel pairs (tested)/n02bsafetypin.jpg","0"
"","1415","html-button-response","209","2.0.0","406858","pspg9qmve2h","crow","When a repeat item came up, I wasnt sure if my space bar press was registering. It wouldve been nice to have an indicator for that","1","Which of these items did you see earlier?","","","","","test","","state","true","stimuli/organized/STATE/USED/Shairbrush1.jpg","stimuli/organized/STATE/USED/Shairbrush2.jpg","1"
"","1047","html-button-response","210","2.0.0","407906","pspg9qmve2h","crow","When a repeat item came up, I wasnt sure if my space bar press was registering. It wouldve been nice to have an indicator for that","0","Which of these items did you see earlier?","","","","","test","","state","true","stimuli/organized/STATE/USED/Sscanner2.JPG","stimuli/organized/STATE/USED/Sscanner1.JPG","0"
"","1283","html-button-response","211","2.0.0","409191","pspg9qmve2h","crow","When a repeat item came up, I wasnt sure if my space bar press was registering. It wouldve been nice to have an indicator for that","0","Which of these items did you see earlier?","","","","","test","","exemplar","true","stimuli/organized/EXEMPLAR/USED/Ebell2.jpg","stimuli/organized/EXEMPLAR/USED/Ebell1.jpg","0"
"","1282","html-button-response","212","2.0.0","410475","pspg9qmve2h","crow","When a repeat item came up, I wasnt sure if my space bar press was registering. It wouldve been nice to have an indicator for that","1","Which of these items did you see earlier?","","","","","test","","exemplar","true","stimuli/organized/EXEMPLAR/USED/Ebread2.jpg","stimuli/organized/EXEMPLAR/USED/Ebread1.jpg","1"
"","1764","html-button-response","213","2.0.0","412241","pspg9qmve2h","crow","When a repeat item came up, I wasnt sure if my space bar press was registering. It wouldve been nice to have an indicator for that","1","Which of these items did you see earlier?","","","","","test","","state","true","stimuli/organized/STATE/USED/Sapplesgreenbasket1.jpg","stimuli/organized/STATE/USED/Sapplesgreenbasket2.jpg","1"
"","1231","html-button-response","214","2.0.0","413473","pspg9qmve2h","crow","When a repeat item came up, I wasnt sure if my space bar press was registering. It wouldve been nice to have an indicator for that","0","Which of these items did you see earlier?","","","","","test","","novel","true","stimuli/organized/Novel pairs (tested)/n05abarrel.jpg","stimuli/organized/Novel pairs (tested)/n05bcactus.jpg","0"
"","1197","html-button-response","215","2.0.0","414672","pspg9qmve2h","crow","When a repeat item came up, I wasnt sure if my space bar press was registering. It wouldve been nice to have an indicator for that","0","Which of these items did you see earlier?","","","","","test","","novel","true","stimuli/organized/Novel pairs (tested)/n16abananas.jpg","stimuli/organized/Novel pairs (tested)/n16bhammer.jpg","0"
"","1683","html-button-response","216","2.0.0","416357","pspg9qmve2h","crow","When a repeat item came up, I wasnt sure if my space bar press was registering. It wouldve been nice to have an indicator for that","0","Which of these items did you see earlier?","","","","","test","","state","true","stimuli/organized/STATE/USED/Scoffeemaker2.JPG","stimuli/organized/STATE/USED/Scoffeemaker1.JPG","0"
"","1132","html-button-response","217","2.0.0","417491","pspg9qmve2h","crow","When a repeat item came up, I wasnt sure if my space bar press was registering. It wouldve been nice to have an indicator for that","0","Which of these items did you see earlier?","","","","","test","","novel","true","stimuli/organized/Novel pairs (tested)/n17bweddingdress.jpg","stimuli/organized/Novel pairs (tested)/n17avendingmachine.jpg","0"
"","1196","html-button-response","218","2.0.0","418690","pspg9qmve2h","crow","When a repeat item came up, I wasnt sure if my space bar press was registering. It wouldve been nice to have an indicator for that","1","Which of these items did you see earlier?","","","","","test","","state","true","stimuli/organized/STATE/USED/Sdresser2.jpg","stimuli/organized/STATE/USED/Sdresser1.jpg","1"
"","1166","html-button-response","219","2.0.0","419858","pspg9qmve2h","crow","When a repeat item came up, I wasnt sure if my space bar press was registering. It wouldve been nice to have an indicator for that","1","Which of these items did you see earlier?","","","","","test","","exemplar","true","stimuli/organized/EXEMPLAR/USED/Ebracelet2.jpg","stimuli/organized/EXEMPLAR/USED/Ebracelet1.jpg","1"
"","931","html-button-response","220","2.0.0","420791","pspg9qmve2h","crow","When a repeat item came up, I wasnt sure if my space bar press was registering. It wouldve been nice to have an indicator for that","1","Which of these items did you see earlier?","","","","","test","","novel","true","stimuli/organized/Novel pairs (tested)/n07bswimmingpool.jpg","stimuli/organized/Novel pairs (tested)/n07apotato.jpg","1"
"","1446","html-button-response","221","2.0.0","422239","pspg9qmve2h","crow","When a repeat item came up, I wasnt sure if my space bar press was registering. It wouldve been nice to have an indicator for that","1","Which of these items did you see earlier?","","","","","test","","novel","true","stimuli/organized/Novel pairs (tested)/n20bshelf.jpg","stimuli/organized/Novel pairs (tested)/n20acarseat.jpg","1"
"","2268","html-button-response","222","2.0.0","424508","pspg9qmve2h","crow","When a repeat item came up, I wasnt sure if my space bar press was registering. It wouldve been nice to have an indicator for that","1","Which of these items did you see earlier?","","","","","test","","state","true","stimuli/organized/STATE/USED/Schinesefoodbox2.jpg","stimuli/organized/STATE/USED/Schinesefoodbox1.jpg","1"
"","1048","html-button-response","223","2.0.0","425558","pspg9qmve2h","crow","When a repeat item came up, I wasnt sure if my space bar press was registering. It wouldve been nice to have an indicator for that","0","Which of these items did you see earlier?","","","","","test","","exemplar","true","stimuli/organized/EXEMPLAR/USED/Ebicycle2.jpg","stimuli/organized/EXEMPLAR/USED/Ebicycle1.jpg","0"
"","930","html-button-response","224","2.0.0","426489","pspg9qmve2h","crow","When a repeat item came up, I wasnt sure if my space bar press was registering. It wouldve been nice to have an indicator for that","1","Which of these items did you see earlier?","","","","","test","","state","true","stimuli/organized/STATE/USED/Sbox1.jpg","stimuli/organized/STATE/USED/Sbox2.jpg","1"
"","1666","html-button-response","225","2.0.0","428158","pspg9qmve2h","crow","When a repeat item came up, I wasnt sure if my space bar press was registering. It wouldve been nice to have an indicator for that","0","Which of these items did you see earlier?","","","","","test","","state","true","stimuli/organized/STATE/USED/Sgiftbox2.jpg","stimuli/organized/STATE/USED/Sgiftbox1.jpg","0"
"","2012","html-button-response","226","2.0.0","430171","pspg9qmve2h","crow","When a repeat item came up, I wasnt sure if my space bar press was registering. It wouldve been nice to have an indicator for that","1","Which of these items did you see earlier?","","","","","test","","state","false","stimuli/organized/STATE/USED/Scontainer2.JPG","stimuli/organized/STATE/USED/Scontainer1.JPG","0"
"","1084","html-button-response","227","2.0.0","431256","pspg9qmve2h","crow","When a repeat item came up, I wasnt sure if my space bar press was registering. It wouldve been nice to have an indicator for that","0","Which of these items did you see earlier?","","","","","test","","exemplar","true","stimuli/organized/EXEMPLAR/USED/Efeather1.jpg","stimuli/organized/EXEMPLAR/USED/Efeather2.jpg","0"
"","2147","html-button-response","228","2.0.0","433404","pspg9qmve2h","crow","When a repeat item came up, I wasnt sure if my space bar press was registering. It wouldve been nice to have an indicator for that","0","Which of these items did you see earlier?","","","","","test","","exemplar","true","stimuli/organized/EXEMPLAR/USED/Efan1.jpg","stimuli/organized/EXEMPLAR/USED/Efan2.jpg","0"
"","4282","html-button-response","229","2.0.0","437688","pspg9qmve2h","crow","When a repeat item came up, I wasnt sure if my space bar press was registering. It wouldve been nice to have an indicator for that","1","Which of these items did you see earlier?","","","","","test","","state","false","stimuli/organized/STATE/USED/Sdryer1.jpg","stimuli/organized/STATE/USED/Sdryer2.jpg","0"
"","1350","html-button-response","230","2.0.0","439040","pspg9qmve2h","crow","When a repeat item came up, I wasnt sure if my space bar press was registering. It wouldve been nice to have an indicator for that","1","Which of these items did you see earlier?","","","","","test","","novel","true","stimuli/organized/Novel pairs (tested)/n13ablueberries.jpg","stimuli/organized/Novel pairs (tested)/n13bdustpan.jpg","1"
"","1198","html-button-response","231","2.0.0","440240","pspg9qmve2h","crow","When a repeat item came up, I wasnt sure if my space bar press was registering. It wouldve been nice to have an indicator for that","1","Which of these items did you see earlier?","","","","","test","","novel","true","stimuli/organized/Novel pairs (tested)/n12bwatch.jpg","stimuli/organized/Novel pairs (tested)/n12atelescope.jpg","1"
"","2347","html-button-response","232","2.0.0","442590","pspg9qmve2h","crow","When a repeat item came up, I wasnt sure if my space bar press was registering. It wouldve been nice to have an indicator for that","1","Which of these items did you see earlier?","","","","","test","","exemplar","true","stimuli/organized/EXEMPLAR/USED/Ecabinet2.jpg","stimuli/organized/EXEMPLAR/USED/Ecabinet1.jpg","1"
"","1198","html-button-response","233","2.0.0","443789","pspg9qmve2h","crow","When a repeat item came up, I wasnt sure if my space bar press was registering. It wouldve been nice to have an indicator for that","0","Which of these items did you see earlier?","","","","","test","","state","true","stimuli/organized/STATE/USED/Sbooks1.JPG","stimuli/organized/STATE/USED/Sbooks2.JPG","0"
"","1115","html-button-response","234","2.0.0","444907","pspg9qmve2h","crow","When a repeat item came up, I wasnt sure if my space bar press was registering. It wouldve been nice to have an indicator for that","1","Which of these items did you see earlier?","","","","","test","","exemplar","true","stimuli/organized/EXEMPLAR/USED/Echisel1.jpg","stimuli/organized/EXEMPLAR/USED/Echisel2.jpg","1"
"","1048","html-button-response","235","2.0.0","445957","pspg9qmve2h","crow","When a repeat item came up, I wasnt sure if my space bar press was registering. It wouldve been nice to have an indicator for that","0","Which of these items did you see earlier?","","","","","test","","novel","true","stimuli/organized/Novel pairs (tested)/n19apickle.jpg","stimuli/organized/Novel pairs (tested)/n19bhairbrush.jpg","0"
"","1649","html-button-response","236","2.0.0","447608","pspg9qmve2h","crow","When a repeat item came up, I wasnt sure if my space bar press was registering. It wouldve been nice to have an indicator for that","0","Which of these items did you see earlier?","","","","","test","","exemplar","true","stimuli/organized/EXEMPLAR/USED/Ecamera1.jpg","stimuli/organized/EXEMPLAR/USED/Ecamera2.jpg","0"
"","964","html-button-response","237","2.0.0","448574","pspg9qmve2h","crow","When a repeat item came up, I wasnt sure if my space bar press was registering. It wouldve been nice to have an indicator for that","1","Which of these items did you see earlier?","","","","","test","","novel","true","stimuli/organized/Novel pairs (tested)/n14acigarette.jpg","stimuli/organized/Novel pairs (tested)/n14bgolfball.jpg","1"
"","948","html-button-response","238","2.0.0","449523","pspg9qmve2h","crow","When a repeat item came up, I wasnt sure if my space bar press was registering. It wouldve been nice to have an indicator for that","1","Which of these items did you see earlier?","","","","","test","","novel","true","stimuli/organized/Novel pairs (tested)/n06blipstick.jpg","stimuli/organized/Novel pairs (tested)/n06acane.jpg","1"
"","1063","html-button-response","239","2.0.0","450588","pspg9qmve2h","crow","When a repeat item came up, I wasnt sure if my space bar press was registering. It wouldve been nice to have an indicator for that","1","Which of these items did you see earlier?","","","","","test","","exemplar","true","stimuli/organized/EXEMPLAR/USED/Eglobe1.jpg","stimuli/organized/EXEMPLAR/USED/Eglobe2.jpg","1"
"","1317","html-button-response","240","2.0.0","451907","pspg9qmve2h","crow","When a repeat item came up, I wasnt sure if my space bar press was registering. It wouldve been nice to have an indicator for that","1","Which of these items did you see earlier?","","","","","test","","state","true","stimuli/organized/STATE/USED/Spotpan2.JPG","stimuli/organized/STATE/USED/Spotpan1.JPG","1"
"","1115","html-button-response","241","2.0.0","453024","pspg9qmve2h","crow","When a repeat item came up, I wasnt sure if my space bar press was registering. It wouldve been nice to have an indicator for that","0","Which of these items did you see earlier?","","","","","test","","state","true","stimuli/organized/STATE/USED/Sbriefcase2.jpg","stimuli/organized/STATE/USED/Sbriefcase1.jpg","0"
"","2599","html-button-response","242","2.0.0","455625","pspg9qmve2h","crow","When a repeat item came up, I wasnt sure if my space bar press was registering. It wouldve been nice to have an indicator for that","1","Which of these items did you see earlier?","","","","","test","","state","true","stimuli/organized/STATE/USED/Sbabytoy2.JPG","stimuli/organized/STATE/USED/Sbabytoy1.JPG","1"
"","1013","html-button-response","243","2.0.0","456640","pspg9qmve2h","crow","When a repeat item came up, I wasnt sure if my space bar press was registering. It wouldve been nice to have an indicator for that","1","Which of these items did you see earlier?","","","","","test","","novel","true","stimuli/organized/Novel pairs (tested)/n03acamel.jpg","stimuli/organized/Novel pairs (tested)/n03bbagel.jpg","1"
"","9033","survey-html-form","244","2.0.0","465675","pspg9qmve2h","crow","When a repeat item came up, I wasnt sure if my space bar press was registering. It wouldve been nice to have an indicator for that","{""age"":""21"",""gender"":""female"",""memory_experiment_experience"":""yes""}","","","","","","","","","","","",""
"","26211","survey-text","245","2.0.0","491889","pspg9qmve2h","crow","When a repeat item came up, I wasnt sure if my space bar press was registering. It wouldve been nice to have an indicator for that","{""task_guess"":""If items that are imperfect are recalled better than their perfect/aligned versions?""}","","","","","","","","","","","",""
"","21964","survey-text","246","2.0.0","513854","pspg9qmve2h","crow","When a repeat item came up, I wasnt sure if my space bar press was registering. It wouldve been nice to have an indicator for that","{""technical_issues_question"":""When a repeat item came up, I wasnt sure if my space bar press was registering. It wouldve been nice to have an indicator for that""}","","","","","","","","","","","",""
