"success","rt","trial_type","trial_index","plugin_version","time_elapsed","random_id","participant","technical_issues","response","stimulus","timeout","failed_images","failed_audio","failed_video","trial_phase","is_repeat","test_type","correct","old_image","new_image","correct_position"
"true","51404","fullscreen","0","null","52410","pt3umwf66r2","otter","n/a","","","","","","","","","","","","",""
"","12470","survey-text","1","2.0.0","64883","pt3umwf66r2","otter","n/a","{""participant_id"":""otter""}","","","","","","","","","","","",""
"","20339","html-keyboard-response","2","2.0.0","85223","pt3umwf66r2","otter","n/a","s","
      <p>In this experiment, a series of objects will be displayed.</p>
      <p>Try to memorize as much as possible about the objects.</p>
      <p>If the image is a <strong> repeat</strong>, press the SPACEBAR.</p>
      <p>Press any key to begin.</p>
    ","","","","","","","","","","",""
"true","","preload","3","2.0.0","86359","pt3umwf66r2","otter","n/a","","","false","[]","[]","[]","","","","","","",""
"","null","html-keyboard-response","4","2.0.0","87361","pt3umwf66r2","otter","n/a","null","<div style=""font-size:60px;"">+</div>","","","","","","","","","","",""
"","null","image-keyboard-response","5","2.0.0","90364","pt3umwf66r2","otter","n/a","null","stimuli/organized/EXEMPLAR/USED/Ebicycle1.jpg","","","","","memory","false","exemplar","true","","",""
"","null","html-keyboard-response","6","2.0.0","91366","pt3umwf66r2","otter","n/a","null","<div style=""font-size:60px; color:black;"">+</div>","","","","","","","","","","",""
"","null","image-keyboard-response","7","2.0.0","94369","pt3umwf66r2","otter","n/a","null","stimuli/organized/Novel pairs (tested)/n18apretzel.jpg","","","","","memory","false","novel","true","","",""
"","null","html-keyboard-response","8","2.0.0","95371","pt3umwf66r2","otter","n/a","null","<div style=""font-size:60px; color:black;"">+</div>","","","","","","","","","","",""
"","null","image-keyboard-response","9","2.0.0","98373","pt3umwf66r2","otter","n/a","null","stimuli/organized/Novel pairs (tested)/n09bsaddle.jpg","","","","","memory","false","novel","true","","",""
"","null","html-keyboard-response","10","2.0.0","99374","pt3umwf66r2","otter","n/a","null","<div style=""font-size:60px; color:black;"">+</div>","","","","","","","","","","",""
"","null","image-keyboard-response","11","2.0.0","102377","pt3umwf66r2","otter","n/a","null","stimuli/organized/STATE/USED/Sdresser2.jpg","","","","","memory","false","state","true","","",""
"","null","html-keyboard-response","12","2.0.0","103378","pt3umwf66r2","otter","n/a","null","<div style=""font-size:60px; color:black;"">+</div>","","","","","","","","","","",""
"","null","image-keyboard-response","13","2.0.0","106380","pt3umwf66r2","otter","n/a","null","stimuli/organized/STATE/USED/Sdonut2.jpg","","","","","memory","false","state","true","","",""
"","null","html-keyboard-response","14","2.0.0","107382","pt3umwf66r2","otter","n/a","null","<div style=""font-size:60px; color:black;"">+</div>","","","","","","","","","","",""
"","null","image-keyboard-response","15","2.0.0","110384","pt3umwf66r2","otter","n/a","null","stimuli/organized/EXEMPLAR/USED/Egrapes1.jpg","","","","","memory","false","exemplar","true","","",""
"","null","html-keyboard-response","16","2.0.0","111385","pt3umwf66r2","otter","n/a","null","<div style=""font-size:60px; color:black;"">+</div>","","","","","","","","","","",""
"","null","image-keyboard-response","17","2.0.0","114388","pt3umwf66r2","otter","n/a","null","stimuli/organized/STATE/USED/Sbox1.jpg","","","","","memory","false","state","true","","",""
"","null","html-keyboard-response","18","2.0.0","115389","pt3umwf66r2","otter","n/a","null","<div style=""font-size:60px; color:black;"">+</div>","","","","","","","","","","",""
"","null","image-keyboard-response","19","2.0.0","118391","pt3umwf66r2","otter","n/a","null","stimuli/organized/Novel pairs (tested)/n03acamel.jpg","","","","","memory","false","novel","true","","",""
"","null","html-keyboard-response","20","2.0.0","119392","pt3umwf66r2","otter","n/a","null","<div style=""font-size:60px; color:black;"">+</div>","","","","","","","","","","",""
"","null","image-keyboard-response","21","2.0.0","122395","pt3umwf66r2","otter","n/a","null","stimuli/organized/STATE/USED/Scookies2.JPG","","","","","memory","false","state","true","","",""
"","null","html-keyboard-response","22","2.0.0","123397","pt3umwf66r2","otter","n/a","null","<div style=""font-size:60px; color:black;"">+</div>","","","","","","","","","","",""
"","null","image-keyboard-response","23","2.0.0","126398","pt3umwf66r2","otter","n/a","null","stimuli/organized/EXEMPLAR/USED/Eframe1.jpg","","","","","memory","false","exemplar","true","","",""
"","null","html-keyboard-response","24","2.0.0","127400","pt3umwf66r2","otter","n/a","null","<div style=""font-size:60px; color:black;"">+</div>","","","","","","","","","","",""
"","null","image-keyboard-response","25","2.0.0","130401","pt3umwf66r2","otter","n/a","null","stimuli/organized/EXEMPLAR/USED/Edispenser2.jpg","","","","","memory","false","exemplar","true","","",""
"","null","html-keyboard-response","26","2.0.0","131402","pt3umwf66r2","otter","n/a","null","<div style=""font-size:60px; color:black;"">+</div>","","","","","","","","","","",""
"","null","image-keyboard-response","27","2.0.0","134403","pt3umwf66r2","otter","n/a","null","stimuli/organized/STATE/USED/Slaptop1.JPG","","","","","memory","false","state","true","","",""
"","null","html-keyboard-response","28","2.0.0","135404","pt3umwf66r2","otter","n/a","null","<div style=""font-size:60px; color:black;"">+</div>","","","","","","","","","","",""
"","null","image-keyboard-response","29","2.0.0","138406","pt3umwf66r2","otter","n/a","null","stimuli/organized/EXEMPLAR/USED/Echisel1.jpg","","","","","memory","false","exemplar","true","","",""
"","null","html-keyboard-response","30","2.0.0","139407","pt3umwf66r2","otter","n/a","null","<div style=""font-size:60px; color:black;"">+</div>","","","","","","","","","","",""
"","null","image-keyboard-response","31","2.0.0","142409","pt3umwf66r2","otter","n/a","null","stimuli/organized/STATE/USED/Seggs1.jpg","","","","","memory","false","state","true","","",""
"","null","html-keyboard-response","32","2.0.0","143410","pt3umwf66r2","otter","n/a","null","<div style=""font-size:60px; color:black;"">+</div>","","","","","","","","","","",""
"","null","image-keyboard-response","33","2.0.0","146411","pt3umwf66r2","otter","n/a","null","stimuli/organized/STATE/USED/Scrayons1.jpg","","","","","memory","false","state","true","","",""
"","null","html-keyboard-response","34","2.0.0","147413","pt3umwf66r2","otter","n/a","null","<div style=""font-size:60px; color:black;"">+</div>","","","","","","","","","","",""
"","null","image-keyboard-response","35","2.0.0","150414","pt3umwf66r2","otter","n/a","null","stimuli/organized/STATE/USED/Spie2.JPG","","","","","memory","false","state","true","","",""
"","null","html-keyboard-response","36","2.0.0","151415","pt3umwf66r2","otter","n/a","null","<div style=""font-size:60px; color:black;"">+</div>","","","","","","","","","","",""
"","null","image-keyboard-response","37","2.0.0","154416","pt3umwf66r2","otter","n/a","null","stimuli/organized/EXEMPLAR/USED/Ebell1.jpg","","","","","memory","false","exemplar","true","","",""
"","null","html-keyboard-response","38","2.0.0","155418","pt3umwf66r2","otter","n/a","null","<div style=""font-size:60px; color:black;"">+</div>","","","","","","","","","","",""
"","null","image-keyboard-response","39","2.0.0","158420","pt3umwf66r2","otter","n/a","null","stimuli/organized/STATE/USED/Sgrinder2.jpg","","","","","memory","false","state","true","","",""
"","null","html-keyboard-response","40","2.0.0","159421","pt3umwf66r2","otter","n/a","null","<div style=""font-size:60px; color:black;"">+</div>","","","","","","","","","","",""
"","null","image-keyboard-response","41","2.0.0","162423","pt3umwf66r2","otter","n/a","null","stimuli/organized/STATE/USED/Sbelt2.jpg","","","","","memory","false","state","true","","",""
"","null","html-keyboard-response","42","2.0.0","163424","pt3umwf66r2","otter","n/a","null","<div style=""font-size:60px; color:black;"">+</div>","","","","","","","","","","",""
"","null","image-keyboard-response","43","2.0.0","166426","pt3umwf66r2","otter","n/a","null","stimuli/organized/Novel pairs (tested)/n15aspiderweb.jpg","","","","","memory","false","novel","true","","",""
"","null","html-keyboard-response","44","2.0.0","167427","pt3umwf66r2","otter","n/a","null","<div style=""font-size:60px; color:black;"">+</div>","","","","","","","","","","",""
"","null","image-keyboard-response","45","2.0.0","170428","pt3umwf66r2","otter","n/a","null","stimuli/organized/EXEMPLAR/USED/Ebread1.jpg","","","","","memory","false","exemplar","true","","",""
"","null","html-keyboard-response","46","2.0.0","171429","pt3umwf66r2","otter","n/a","null","<div style=""font-size:60px; color:black;"">+</div>","","","","","","","","","","",""
"","null","image-keyboard-response","47","2.0.0","174430","pt3umwf66r2","otter","n/a","null","stimuli/organized/Novel pairs (tested)/n11bsock.jpg","","","","","memory","false","novel","true","","",""
"","null","html-keyboard-response","48","2.0.0","175431","pt3umwf66r2","otter","n/a","null","<div style=""font-size:60px; color:black;"">+</div>","","","","","","","","","","",""
"","null","image-keyboard-response","49","2.0.0","178432","pt3umwf66r2","otter","n/a","null","stimuli/organized/Novel pairs (tested)/n16bhammer.jpg","","","","","memory","false","novel","true","","",""
"","null","html-keyboard-response","50","2.0.0","179433","pt3umwf66r2","otter","n/a","null","<div style=""font-size:60px; color:black;"">+</div>","","","","","","","","","","",""
"","null","image-keyboard-response","51","2.0.0","182435","pt3umwf66r2","otter","n/a","null","stimuli/organized/STATE/USED/Sgiftbox1.jpg","","","","","memory","false","state","true","","",""
"","null","html-keyboard-response","52","2.0.0","183437","pt3umwf66r2","otter","n/a","null","<div style=""font-size:60px; color:black;"">+</div>","","","","","","","","","","",""
"","null","image-keyboard-response","53","2.0.0","186439","pt3umwf66r2","otter","n/a","null","stimuli/organized/EXEMPLAR/USED/Echocolatebar2.jpg","","","","","memory","false","exemplar","true","","",""
"","null","html-keyboard-response","54","2.0.0","187441","pt3umwf66r2","otter","n/a","null","<div style=""font-size:60px; color:black;"">+</div>","","","","","","","","","","",""
"","null","image-keyboard-response","55","2.0.0","190443","pt3umwf66r2","otter","n/a","null","stimuli/organized/Novel pairs (tested)/n06acane.jpg","","","","","memory","false","novel","true","","",""
"","null","html-keyboard-response","56","2.0.0","191445","pt3umwf66r2","otter","n/a","null","<div style=""font-size:60px; color:black;"">+</div>","","","","","","","","","","",""
"","null","image-keyboard-response","57","2.0.0","194447","pt3umwf66r2","otter","n/a","null","stimuli/organized/STATE/USED/Sdrum1.jpg","","","","","memory","false","state","true","","",""
"","null","html-keyboard-response","58","2.0.0","195449","pt3umwf66r2","otter","n/a","null","<div style=""font-size:60px; color:black;"">+</div>","","","","","","","","","","",""
"","null","image-keyboard-response","59","2.0.0","198451","pt3umwf66r2","otter","n/a","null","stimuli/organized/Novel pairs (tested)/n19bhairbrush.jpg","","","","","memory","false","novel","true","","",""
"","null","html-keyboard-response","60","2.0.0","199452","pt3umwf66r2","otter","n/a","null","<div style=""font-size:60px; color:black;"">+</div>","","","","","","","","","","",""
"","null","image-keyboard-response","61","2.0.0","202454","pt3umwf66r2","otter","n/a","null","stimuli/organized/STATE/USED/Sbooks2.JPG","","","","","memory","false","state","true","","",""
"","null","html-keyboard-response","62","2.0.0","203456","pt3umwf66r2","otter","n/a","null","<div style=""font-size:60px; color:black;"">+</div>","","","","","","","","","","",""
"","null","image-keyboard-response","63","2.0.0","206457","pt3umwf66r2","otter","n/a","null","stimuli/organized/Novel pairs (tested)/n12bwatch.jpg","","","","","memory","false","novel","true","","",""
"","null","html-keyboard-response","64","2.0.0","207459","pt3umwf66r2","otter","n/a","null","<div style=""font-size:60px; color:black;"">+</div>","","","","","","","","","","",""
"","null","image-keyboard-response","65","2.0.0","210461","pt3umwf66r2","otter","n/a","null","stimuli/organized/Novel pairs (tested)/n08aoven.jpg","","","","","memory","false","novel","true","","",""
"","null","html-keyboard-response","66","2.0.0","211462","pt3umwf66r2","otter","n/a","null","<div style=""font-size:60px; color:black;"">+</div>","","","","","","","","","","",""
"","null","image-keyboard-response","67","2.0.0","214464","pt3umwf66r2","otter","n/a","null","stimuli/organized/STATE/USED/Scoffeemaker2.JPG","","","","","memory","false","state","true","","",""
"","null","html-keyboard-response","68","2.0.0","215466","pt3umwf66r2","otter","n/a","null","<div style=""font-size:60px; color:black;"">+</div>","","","","","","","","","","",""
"","null","image-keyboard-response","69","2.0.0","218468","pt3umwf66r2","otter","n/a","null","stimuli/organized/EXEMPLAR/USED/Ecamera2.jpg","","","","","memory","false","exemplar","true","","",""
"","null","html-keyboard-response","70","2.0.0","219470","pt3umwf66r2","otter","n/a","null","<div style=""font-size:60px; color:black;"">+</div>","","","","","","","","","","",""
"","null","image-keyboard-response","71","2.0.0","222472","pt3umwf66r2","otter","n/a","null","stimuli/organized/Novel pairs (tested)/n07apotato.jpg","","","","","memory","false","novel","true","","",""
"","null","html-keyboard-response","72","2.0.0","223473","pt3umwf66r2","otter","n/a","null","<div style=""font-size:60px; color:black;"">+</div>","","","","","","","","","","",""
"","null","image-keyboard-response","73","2.0.0","226475","pt3umwf66r2","otter","n/a","null","stimuli/organized/STATE/USED/Sjuiceglass1.JPG","","","","","memory","false","state","true","","",""
"","null","html-keyboard-response","74","2.0.0","227476","pt3umwf66r2","otter","n/a","null","<div style=""font-size:60px; color:black;"">+</div>","","","","","","","","","","",""
"","null","image-keyboard-response","75","2.0.0","230478","pt3umwf66r2","otter","n/a","null","stimuli/organized/Novel pairs (tested)/n17bweddingdress.jpg","","","","","memory","false","novel","true","","",""
"","null","html-keyboard-response","76","2.0.0","231480","pt3umwf66r2","otter","n/a","null","<div style=""font-size:60px; color:black;"">+</div>","","","","","","","","","","",""
"","null","image-keyboard-response","77","2.0.0","234482","pt3umwf66r2","otter","n/a","null","stimuli/organized/Novel pairs (tested)/n04ayarn.jpg","","","","","memory","false","novel","true","","",""
"","null","html-keyboard-response","78","2.0.0","235484","pt3umwf66r2","otter","n/a","null","<div style=""font-size:60px; color:black;"">+</div>","","","","","","","","","","",""
"","null","image-keyboard-response","79","2.0.0","238486","pt3umwf66r2","otter","n/a","null","stimuli/organized/Novel pairs (tested)/n01bcoin.jpg","","","","","memory","false","novel","true","","",""
"","null","html-keyboard-response","80","2.0.0","239487","pt3umwf66r2","otter","n/a","null","<div style=""font-size:60px; color:black;"">+</div>","","","","","","","","","","",""
"","null","image-keyboard-response","81","2.0.0","242488","pt3umwf66r2","otter","n/a","null","stimuli/organized/STATE/USED/Sapplesgreenbasket2.jpg","","","","","memory","false","state","true","","",""
"","null","html-keyboard-response","82","2.0.0","243489","pt3umwf66r2","otter","n/a","null","<div style=""font-size:60px; color:black;"">+</div>","","","","","","","","","","",""
"","null","image-keyboard-response","83","2.0.0","246490","pt3umwf66r2","otter","n/a","null","stimuli/organized/STATE/USED/Sflask1.jpg","","","","","memory","false","state","true","","",""
"","null","html-keyboard-response","84","2.0.0","247491","pt3umwf66r2","otter","n/a","null","<div style=""font-size:60px; color:black;"">+</div>","","","","","","","","","","",""
"","null","image-keyboard-response","85","2.0.0","250494","pt3umwf66r2","otter","n/a","null","stimuli/organized/EXEMPLAR/USED/Ecamera2.jpg","","","","","memory","true","exemplar","false","","",""
"","null","html-keyboard-response","86","2.0.0","251495","pt3umwf66r2","otter","n/a","null","<div style=""font-size:60px; color:black;"">+</div>","","","","","","","","","","",""
"","null","image-keyboard-response","87","2.0.0","254496","pt3umwf66r2","otter","n/a","null","stimuli/organized/STATE/USED/Scontainer2.JPG","","","","","memory","false","state","true","","",""
"","null","html-keyboard-response","88","2.0.0","255498","pt3umwf66r2","otter","n/a","null","<div style=""font-size:60px; color:black;"">+</div>","","","","","","","","","","",""
"","null","image-keyboard-response","89","2.0.0","258499","pt3umwf66r2","otter","n/a","null","stimuli/organized/EXEMPLAR/USED/Egame2.jpg","","","","","memory","false","exemplar","true","","",""
"","null","html-keyboard-response","90","2.0.0","259501","pt3umwf66r2","otter","n/a","null","<div style=""font-size:60px; color:black;"">+</div>","","","","","","","","","","",""
"","null","image-keyboard-response","91","2.0.0","262503","pt3umwf66r2","otter","n/a","null","stimuli/organized/STATE/USED/Spotpan2.JPG","","","","","memory","false","state","true","","",""
"","null","html-keyboard-response","92","2.0.0","263504","pt3umwf66r2","otter","n/a","null","<div style=""font-size:60px; color:black;"">+</div>","","","","","","","","","","",""
"","null","image-keyboard-response","93","2.0.0","266506","pt3umwf66r2","otter","n/a","null","stimuli/organized/Novel pairs (tested)/n14acigarette.jpg","","","","","memory","false","novel","true","","",""
"","null","html-keyboard-response","94","2.0.0","267507","pt3umwf66r2","otter","n/a","null","<div style=""font-size:60px; color:black;"">+</div>","","","","","","","","","","",""
"","null","image-keyboard-response","95","2.0.0","270509","pt3umwf66r2","otter","n/a","null","stimuli/organized/STATE/USED/Sbriefcase1.jpg","","","","","memory","false","state","true","","",""
"","null","html-keyboard-response","96","2.0.0","271510","pt3umwf66r2","otter","n/a","null","<div style=""font-size:60px; color:black;"">+</div>","","","","","","","","","","",""
"","null","image-keyboard-response","97","2.0.0","274512","pt3umwf66r2","otter","n/a","null","stimuli/organized/STATE/USED/Sbrushes2.jpg","","","","","memory","false","state","true","","",""
"","null","html-keyboard-response","98","2.0.0","275513","pt3umwf66r2","otter","n/a","null","<div style=""font-size:60px; color:black;"">+</div>","","","","","","","","","","",""
"","null","image-keyboard-response","99","2.0.0","278514","pt3umwf66r2","otter","n/a","null","stimuli/organized/EXEMPLAR/USED/Egoggles1.jpg","","","","","memory","false","exemplar","true","","",""
"","null","html-keyboard-response","100","2.0.0","279516","pt3umwf66r2","otter","n/a","null","<div style=""font-size:60px; color:black;"">+</div>","","","","","","","","","","",""
"","null","image-keyboard-response","101","2.0.0","282518","pt3umwf66r2","otter","n/a","null","stimuli/organized/STATE/USED/Sbureau1.JPG","","","","","memory","false","state","true","","",""
"","null","html-keyboard-response","102","2.0.0","283520","pt3umwf66r2","otter","n/a","null","<div style=""font-size:60px; color:black;"">+</div>","","","","","","","","","","",""
"","null","image-keyboard-response","103","2.0.0","286521","pt3umwf66r2","otter","n/a","null","stimuli/organized/STATE/USED/Sbabytoy1.JPG","","","","","memory","false","state","true","","",""
"","null","html-keyboard-response","104","2.0.0","287523","pt3umwf66r2","otter","n/a","null","<div style=""font-size:60px; color:black;"">+</div>","","","","","","","","","","",""
"","null","image-keyboard-response","105","2.0.0","290524","pt3umwf66r2","otter","n/a","null","stimuli/organized/STATE/USED/Shairbrush1.jpg","","","","","memory","false","state","true","","",""
"","null","html-keyboard-response","106","2.0.0","291525","pt3umwf66r2","otter","n/a","null","<div style=""font-size:60px; color:black;"">+</div>","","","","","","","","","","",""
"","null","image-keyboard-response","107","2.0.0","294526","pt3umwf66r2","otter","n/a","null","stimuli/organized/EXEMPLAR/USED/Ecar1.jpg","","","","","memory","false","exemplar","true","","",""
"","null","html-keyboard-response","108","2.0.0","295528","pt3umwf66r2","otter","n/a","null","<div style=""font-size:60px; color:black;"">+</div>","","","","","","","","","","",""
"","null","image-keyboard-response","109","2.0.0","298530","pt3umwf66r2","otter","n/a","null","stimuli/organized/Novel pairs (tested)/n05abarrel.jpg","","","","","memory","false","novel","true","","",""
"","null","html-keyboard-response","110","2.0.0","299531","pt3umwf66r2","otter","n/a","null","<div style=""font-size:60px; color:black;"">+</div>","","","","","","","","","","",""
"","null","image-keyboard-response","111","2.0.0","302535","pt3umwf66r2","otter","n/a","null","stimuli/organized/EXEMPLAR/USED/Econe1.jpg","","","","","memory","false","exemplar","true","","",""
"","null","html-keyboard-response","112","2.0.0","303536","pt3umwf66r2","otter","n/a","null","<div style=""font-size:60px; color:black;"">+</div>","","","","","","","","","","",""
"","null","image-keyboard-response","113","2.0.0","306539","pt3umwf66r2","otter","n/a","null","stimuli/organized/EXEMPLAR/USED/Echocolatebar2.jpg","","","","","memory","true","exemplar","false","","",""
"","null","html-keyboard-response","114","2.0.0","307540","pt3umwf66r2","otter","n/a","null","<div style=""font-size:60px; color:black;"">+</div>","","","","","","","","","","",""
"","null","image-keyboard-response","115","2.0.0","310542","pt3umwf66r2","otter","n/a","null","stimuli/organized/STATE/USED/Sscissors2.JPG","","","","","memory","false","state","true","","",""
"","null","html-keyboard-response","116","2.0.0","311543","pt3umwf66r2","otter","n/a","null","<div style=""font-size:60px; color:black;"">+</div>","","","","","","","","","","",""
"","null","image-keyboard-response","117","2.0.0","314545","pt3umwf66r2","otter","n/a","null","stimuli/organized/STATE/USED/Sdie2.jpg","","","","","memory","false","state","true","","",""
"","null","html-keyboard-response","118","2.0.0","315547","pt3umwf66r2","otter","n/a","null","<div style=""font-size:60px; color:black;"">+</div>","","","","","","","","","","",""
"","null","image-keyboard-response","119","2.0.0","318548","pt3umwf66r2","otter","n/a","null","stimuli/organized/STATE/USED/Sphone1.JPG","","","","","memory","false","state","true","","",""
"","null","html-keyboard-response","120","2.0.0","319549","pt3umwf66r2","otter","n/a","null","<div style=""font-size:60px; color:black;"">+</div>","","","","","","","","","","",""
"","null","image-keyboard-response","121","2.0.0","322552","pt3umwf66r2","otter","n/a","null","stimuli/organized/STATE/USED/Sscanner2.JPG","","","","","memory","false","state","true","","",""
"","null","html-keyboard-response","122","2.0.0","323553","pt3umwf66r2","otter","n/a","null","<div style=""font-size:60px; color:black;"">+</div>","","","","","","","","","","",""
"","null","image-keyboard-response","123","2.0.0","326555","pt3umwf66r2","otter","n/a","null","stimuli/organized/STATE/USED/Schinesefoodbox1.jpg","","","","","memory","false","state","true","","",""
"","null","html-keyboard-response","124","2.0.0","327557","pt3umwf66r2","otter","n/a","null","<div style=""font-size:60px; color:black;"">+</div>","","","","","","","","","","",""
"","null","image-keyboard-response","125","2.0.0","330559","pt3umwf66r2","otter","n/a","null","stimuli/organized/STATE/USED/Sdishes1.JPG","","","","","memory","false","state","true","","",""
"","null","html-keyboard-response","126","2.0.0","331560","pt3umwf66r2","otter","n/a","null","<div style=""font-size:60px; color:black;"">+</div>","","","","","","","","","","",""
"","null","image-keyboard-response","127","2.0.0","334561","pt3umwf66r2","otter","n/a","null","stimuli/organized/Novel pairs (tested)/n02aaxe.jpg","","","","","memory","false","novel","true","","",""
"","null","html-keyboard-response","128","2.0.0","335562","pt3umwf66r2","otter","n/a","null","<div style=""font-size:60px; color:black;"">+</div>","","","","","","","","","","",""
"","null","image-keyboard-response","129","2.0.0","338564","pt3umwf66r2","otter","n/a","null","stimuli/organized/EXEMPLAR/USED/Efan1.jpg","","","","","memory","false","exemplar","true","","",""
"","null","html-keyboard-response","130","2.0.0","339565","pt3umwf66r2","otter","n/a","null","<div style=""font-size:60px; color:black;"">+</div>","","","","","","","","","","",""
"","null","image-keyboard-response","131","2.0.0","342565","pt3umwf66r2","otter","n/a","null","stimuli/organized/STATE/USED/Sfiretrucktoy2.jpg","","","","","memory","false","state","true","","",""
"","null","html-keyboard-response","132","2.0.0","343567","pt3umwf66r2","otter","n/a","null","<div style=""font-size:60px; color:black;"">+</div>","","","","","","","","","","",""
"","null","image-keyboard-response","133","2.0.0","346568","pt3umwf66r2","otter","n/a","null","stimuli/organized/STATE/USED/Sabacus1.jpg","","","","","memory","false","state","true","","",""
"","null","html-keyboard-response","134","2.0.0","347569","pt3umwf66r2","otter","n/a","null","<div style=""font-size:60px; color:black;"">+</div>","","","","","","","","","","",""
"","null","image-keyboard-response","135","2.0.0","350571","pt3umwf66r2","otter","n/a","null","stimuli/organized/STATE/USED/Sbreadbox1.JPG","","","","","memory","false","state","true","","",""
"","null","html-keyboard-response","136","2.0.0","351572","pt3umwf66r2","otter","n/a","null","<div style=""font-size:60px; color:black;"">+</div>","","","","","","","","","","",""
"","null","image-keyboard-response","137","2.0.0","354574","pt3umwf66r2","otter","n/a","null","stimuli/organized/EXEMPLAR/USED/Ecabinet2.jpg","","","","","memory","false","exemplar","true","","",""
"","null","html-keyboard-response","138","2.0.0","355575","pt3umwf66r2","otter","n/a","null","<div style=""font-size:60px; color:black;"">+</div>","","","","","","","","","","",""
"","null","image-keyboard-response","139","2.0.0","358577","pt3umwf66r2","otter","n/a","null","stimuli/organized/Novel pairs (tested)/n13bdustpan.jpg","","","","","memory","false","novel","true","","",""
"","null","html-keyboard-response","140","2.0.0","359578","pt3umwf66r2","otter","n/a","null","<div style=""font-size:60px; color:black;"">+</div>","","","","","","","","","","",""
"","1556","image-keyboard-response","141","2.0.0","362579","pt3umwf66r2","otter","n/a"," ","stimuli/organized/Novel pairs (tested)/n02aaxe.jpg","","","","","memory","true","novel","true","","",""
"","null","html-keyboard-response","142","2.0.0","363580","pt3umwf66r2","otter","n/a","null","<div style=""font-size:60px; color:green;"">+</div>","","","","","","","","","","",""
"","null","image-keyboard-response","143","2.0.0","366583","pt3umwf66r2","otter","n/a","null","stimuli/organized/EXEMPLAR/USED/Ebracelet1.jpg","","","","","memory","false","exemplar","true","","",""
"","null","html-keyboard-response","144","2.0.0","367584","pt3umwf66r2","otter","n/a","null","<div style=""font-size:60px; color:black;"">+</div>","","","","","","","","","","",""
"","null","image-keyboard-response","145","2.0.0","370585","pt3umwf66r2","otter","n/a","null","stimuli/organized/EXEMPLAR/USED/Efeather2.jpg","","","","","memory","false","exemplar","true","","",""
"","null","html-keyboard-response","146","2.0.0","371587","pt3umwf66r2","otter","n/a","null","<div style=""font-size:60px; color:black;"">+</div>","","","","","","","","","","",""
"","null","image-keyboard-response","147","2.0.0","374589","pt3umwf66r2","otter","n/a","null","stimuli/organized/STATE/USED/Sgiftbag2.jpg","","","","","memory","false","state","true","","",""
"","null","html-keyboard-response","148","2.0.0","375590","pt3umwf66r2","otter","n/a","null","<div style=""font-size:60px; color:black;"">+</div>","","","","","","","","","","",""
"","993","image-keyboard-response","149","2.0.0","378592","pt3umwf66r2","otter","n/a"," ","stimuli/organized/EXEMPLAR/USED/Ecar1.jpg","","","","","memory","true","exemplar","true","","",""
"","null","html-keyboard-response","150","2.0.0","379593","pt3umwf66r2","otter","n/a","null","<div style=""font-size:60px; color:green;"">+</div>","","","","","","","","","","",""
"","null","image-keyboard-response","151","2.0.0","382594","pt3umwf66r2","otter","n/a","null","stimuli/organized/STATE/USED/Sdryer2.jpg","","","","","memory","false","state","true","","",""
"","null","html-keyboard-response","152","2.0.0","383596","pt3umwf66r2","otter","n/a","null","<div style=""font-size:60px; color:black;"">+</div>","","","","","","","","","","",""
"","null","image-keyboard-response","153","2.0.0","386597","pt3umwf66r2","otter","n/a","null","stimuli/organized/STATE/USED/Sbottles2.JPG","","","","","memory","false","state","true","","",""
"","null","html-keyboard-response","154","2.0.0","387598","pt3umwf66r2","otter","n/a","null","<div style=""font-size:60px; color:black;"">+</div>","","","","","","","","","","",""
"","null","image-keyboard-response","155","2.0.0","390599","pt3umwf66r2","otter","n/a","null","stimuli/organized/EXEMPLAR/USED/Ebasket2.jpg","","","","","memory","false","exemplar","true","","",""
"","null","html-keyboard-response","156","2.0.0","391600","pt3umwf66r2","otter","n/a","null","<div style=""font-size:60px; color:black;"">+</div>","","","","","","","","","","",""
"","849","image-keyboard-response","157","2.0.0","394601","pt3umwf66r2","otter","n/a"," ","stimuli/organized/EXEMPLAR/USED/Ecabinet2.jpg","","","","","memory","true","exemplar","true","","",""
"","null","html-keyboard-response","158","2.0.0","395602","pt3umwf66r2","otter","n/a","null","<div style=""font-size:60px; color:green;"">+</div>","","","","","","","","","","",""
"","null","image-keyboard-response","159","2.0.0","398603","pt3umwf66r2","otter","n/a","null","stimuli/organized/EXEMPLAR/USED/Eglobe2.jpg","","","","","memory","false","exemplar","true","","",""
"","null","html-keyboard-response","160","2.0.0","399605","pt3umwf66r2","otter","n/a","null","<div style=""font-size:60px; color:black;"">+</div>","","","","","","","","","","",""
"","null","image-keyboard-response","161","2.0.0","402607","pt3umwf66r2","otter","n/a","null","stimuli/organized/EXEMPLAR/USED/Ecalculator2.jpg","","","","","memory","false","exemplar","true","","",""
"","null","html-keyboard-response","162","2.0.0","403608","pt3umwf66r2","otter","n/a","null","<div style=""font-size:60px; color:black;"">+</div>","","","","","","","","","","",""
"","null","image-keyboard-response","163","2.0.0","406610","pt3umwf66r2","otter","n/a","null","stimuli/organized/Novel pairs (tested)/n20bshelf.jpg","","","","","memory","false","novel","true","","",""
"","null","html-keyboard-response","164","2.0.0","407611","pt3umwf66r2","otter","n/a","null","<div style=""font-size:60px; color:black;"">+</div>","","","","","","","","","","",""
"","null","image-keyboard-response","165","2.0.0","410612","pt3umwf66r2","otter","n/a","null","stimuli/organized/Novel pairs (tested)/n10bturkey.jpg","","","","","memory","false","novel","true","","",""
"","289408","html-button-response","166","2.0.0","700021","pt3umwf66r2","otter","n/a","0","<p>You have completed the study phase.</p><p>Take a short break. Press the button below when you are ready to continue.</p>","","","","","","","","","","",""
"","10200","html-keyboard-response","167","2.0.0","710221","pt3umwf66r2","otter","n/a","n","<p>You will now be shown pairs of images.</p><p>Select the image you remember seeing during the study phase.</p><p>Focus on accuracy, not speed.</p><p>Press any key to begin.</p>","","","","","","","","","","",""
"","1535","html-button-response","168","2.0.0","711757","pt3umwf66r2","otter","n/a","1","Which of these items did you see earlier?","","","","","test","","novel","true","stimuli/organized/Novel pairs (tested)/n10bturkey.jpg","stimuli/organized/Novel pairs (tested)/n10awindmill.jpg","1"
"","4521","html-button-response","169","2.0.0","716279","pt3umwf66r2","otter","n/a","0","Which of these items did you see earlier?","","","","","test","","state","true","stimuli/organized/STATE/USED/Sbreadbox1.JPG","stimuli/organized/STATE/USED/Sbreadbox2.JPG","0"
"","3716","html-button-response","170","2.0.0","719996","pt3umwf66r2","otter","n/a","0","Which of these items did you see earlier?","","","","","test","","state","true","stimuli/organized/STATE/USED/Sgiftbox1.jpg","stimuli/organized/STATE/USED/Sgiftbox2.jpg","0"
"","1875","html-button-response","171","2.0.0","721872","pt3umwf66r2","otter","n/a","0","Which of these items did you see earlier?","","","","","test","","state","true","stimuli/organized/STATE/USED/Slaptop1.JPG","stimuli/organized/STATE/USED/Slaptop2.JPG","0"
"","1267","html-button-response","172","2.0.0","723139","pt3umwf66r2","otter","n/a","1","Which of these items did you see earlier?","","","","","test","","exemplar","true","stimuli/organized/EXEMPLAR/USED/Ebicycle1.jpg","stimuli/organized/EXEMPLAR/USED/Ebicycle2.jpg","1"
"","2015","html-button-response","173","2.0.0","725155","pt3umwf66r2","otter","n/a","0","Which of these items did you see earlier?","","","","","test","","state","true","stimuli/organized/STATE/USED/Sbriefcase1.jpg","stimuli/organized/STATE/USED/Sbriefcase2.jpg","0"
"","2046","html-button-response","174","2.0.0","727201","pt3umwf66r2","otter","n/a","0","Which of these items did you see earlier?","","","","","test","","state","true","stimuli/organized/STATE/USED/Sbabytoy1.JPG","stimuli/organized/STATE/USED/Sbabytoy2.JPG","0"
"","2417","html-button-response","175","2.0.0","729618","pt3umwf66r2","otter","n/a","0","Which of these items did you see earlier?","","","","","test","","state","false","stimuli/organized/STATE/USED/Sabacus1.jpg","stimuli/organized/STATE/USED/Sabacus2.jpg","1"
"","1635","html-button-response","176","2.0.0","731254","pt3umwf66r2","otter","n/a","1","Which of these items did you see earlier?","","","","","test","","exemplar","true","stimuli/organized/EXEMPLAR/USED/Ecalculator2.jpg","stimuli/organized/EXEMPLAR/USED/Ecalculator1.jpg","1"
"","2973","html-button-response","177","2.0.0","734227","pt3umwf66r2","otter","n/a","0","Which of these items did you see earlier?","","","","","test","","novel","true","stimuli/organized/Novel pairs (tested)/n18apretzel.jpg","stimuli/organized/Novel pairs (tested)/n18bsnail.jpg","0"
"","1321","html-button-response","178","2.0.0","735549","pt3umwf66r2","otter","n/a","1","Which of these items did you see earlier?","","","","","test","","novel","true","stimuli/organized/Novel pairs (tested)/n02aaxe.jpg","stimuli/organized/Novel pairs (tested)/n02bsafetypin.jpg","1"
"","1476","html-button-response","179","2.0.0","737026","pt3umwf66r2","otter","n/a","1","Which of these items did you see earlier?","","","","","test","","exemplar","true","stimuli/organized/EXEMPLAR/USED/Egoggles1.jpg","stimuli/organized/EXEMPLAR/USED/Egoggles2.jpg","1"
"","1545","html-button-response","180","2.0.0","738572","pt3umwf66r2","otter","n/a","1","Which of these items did you see earlier?","","","","","test","","novel","true","stimuli/organized/Novel pairs (tested)/n20bshelf.jpg","stimuli/organized/Novel pairs (tested)/n20acarseat.jpg","1"
"","1453","html-button-response","181","2.0.0","740025","pt3umwf66r2","otter","n/a","0","Which of these items did you see earlier?","","","","","test","","state","true","stimuli/organized/STATE/USED/Sjuiceglass1.JPG","stimuli/organized/STATE/USED/Sjuiceglass2.JPG","0"
"","2816","html-button-response","182","2.0.0","742842","pt3umwf66r2","otter","n/a","0","Which of these items did you see earlier?","","","","","test","","state","false","stimuli/organized/STATE/USED/Sbrushes2.jpg","stimuli/organized/STATE/USED/Sbrushes1.jpg","1"
"","1476","html-button-response","183","2.0.0","744318","pt3umwf66r2","otter","n/a","1","Which of these items did you see earlier?","","","","","test","","novel","true","stimuli/organized/Novel pairs (tested)/n15aspiderweb.jpg","stimuli/organized/Novel pairs (tested)/n15bfootball.jpg","1"
"","1453","html-button-response","184","2.0.0","745772","pt3umwf66r2","otter","n/a","0","Which of these items did you see earlier?","","","","","test","","novel","true","stimuli/organized/Novel pairs (tested)/n01bcoin.jpg","stimuli/organized/Novel pairs (tested)/n01aladybug.jpg","0"
"","1236","html-button-response","185","2.0.0","747008","pt3umwf66r2","otter","n/a","1","Which of these items did you see earlier?","","","","","test","","exemplar","true","stimuli/organized/EXEMPLAR/USED/Eglobe2.jpg","stimuli/organized/EXEMPLAR/USED/Eglobe1.jpg","1"
"","1320","html-button-response","186","2.0.0","748328","pt3umwf66r2","otter","n/a","1","Which of these items did you see earlier?","","","","","test","","state","true","stimuli/organized/STATE/USED/Sscanner2.JPG","stimuli/organized/STATE/USED/Sscanner1.JPG","1"
"","1145","html-button-response","187","2.0.0","749474","pt3umwf66r2","otter","n/a","1","Which of these items did you see earlier?","","","","","test","","novel","true","stimuli/organized/Novel pairs (tested)/n11bsock.jpg","stimuli/organized/Novel pairs (tested)/n11abatteries.jpg","1"
"","1500","html-button-response","188","2.0.0","750974","pt3umwf66r2","otter","n/a","1","Which of these items did you see earlier?","","","","","test","","exemplar","true","stimuli/organized/EXEMPLAR/USED/Efeather2.jpg","stimuli/organized/EXEMPLAR/USED/Efeather1.jpg","1"
"","958","html-button-response","189","2.0.0","751933","pt3umwf66r2","otter","n/a","1","Which of these items did you see earlier?","","","","","test","","exemplar","true","stimuli/organized/EXEMPLAR/USED/Ebasket2.jpg","stimuli/organized/EXEMPLAR/USED/Ebasket1.jpg","1"
"","1446","html-button-response","190","2.0.0","753379","pt3umwf66r2","otter","n/a","0","Which of these items did you see earlier?","","","","","test","","state","true","stimuli/organized/STATE/USED/Sphone1.JPG","stimuli/organized/STATE/USED/Sphone2.JPG","0"
"","1724","html-button-response","191","2.0.0","755104","pt3umwf66r2","otter","n/a","1","Which of these items did you see earlier?","","","","","test","","exemplar","true","stimuli/organized/EXEMPLAR/USED/Egame2.jpg","stimuli/organized/EXEMPLAR/USED/Egame1.jpg","1"
"","1235","html-button-response","192","2.0.0","756340","pt3umwf66r2","otter","n/a","0","Which of these items did you see earlier?","","","","","test","","novel","true","stimuli/organized/Novel pairs (tested)/n16bhammer.jpg","stimuli/organized/Novel pairs (tested)/n16abananas.jpg","0"
"","1144","html-button-response","193","2.0.0","757484","pt3umwf66r2","otter","n/a","0","Which of these items did you see earlier?","","","","","test","","exemplar","true","stimuli/organized/EXEMPLAR/USED/Echocolatebar2.jpg","stimuli/organized/EXEMPLAR/USED/Echocolatebar1.jpg","0"
"","2356","html-button-response","194","2.0.0","759841","pt3umwf66r2","otter","n/a","0","Which of these items did you see earlier?","","","","","test","","state","true","stimuli/organized/STATE/USED/Sbooks2.JPG","stimuli/organized/STATE/USED/Sbooks1.JPG","0"
"","1400","html-button-response","195","2.0.0","761241","pt3umwf66r2","otter","n/a","1","Which of these items did you see earlier?","","","","","test","","novel","true","stimuli/organized/Novel pairs (tested)/n14acigarette.jpg","stimuli/organized/Novel pairs (tested)/n14bgolfball.jpg","1"
"","1892","html-button-response","196","2.0.0","763134","pt3umwf66r2","otter","n/a","1","Which of these items did you see earlier?","","","","","test","","state","true","stimuli/organized/STATE/USED/Sflask1.jpg","stimuli/organized/STATE/USED/Sflask2.jpg","1"
"","1583","html-button-response","197","2.0.0","764718","pt3umwf66r2","otter","n/a","0","Which of these items did you see earlier?","","","","","test","","novel","true","stimuli/organized/Novel pairs (tested)/n05abarrel.jpg","stimuli/organized/Novel pairs (tested)/n05bcactus.jpg","0"
"","1208","html-button-response","198","2.0.0","765926","pt3umwf66r2","otter","n/a","1","Which of these items did you see earlier?","","","","","test","","novel","true","stimuli/organized/Novel pairs (tested)/n09bsaddle.jpg","stimuli/organized/Novel pairs (tested)/n09apenguin.jpg","1"
"","2191","html-button-response","199","2.0.0","768117","pt3umwf66r2","otter","n/a","1","Which of these items did you see earlier?","","","","","test","","state","true","stimuli/organized/STATE/USED/Spotpan2.JPG","stimuli/organized/STATE/USED/Spotpan1.JPG","1"
"","2180","html-button-response","200","2.0.0","770297","pt3umwf66r2","otter","n/a","1","Which of these items did you see earlier?","","","","","test","","state","false","stimuli/organized/STATE/USED/Sbox1.jpg","stimuli/organized/STATE/USED/Sbox2.jpg","0"
"","2382","html-button-response","201","2.0.0","772680","pt3umwf66r2","otter","n/a","0","Which of these items did you see earlier?","","","","","test","","state","true","stimuli/organized/STATE/USED/Sapplesgreenbasket2.jpg","stimuli/organized/STATE/USED/Sapplesgreenbasket1.jpg","0"
"","1358","html-button-response","202","2.0.0","774039","pt3umwf66r2","otter","n/a","0","Which of these items did you see earlier?","","","","","test","","state","true","stimuli/organized/STATE/USED/Sdonut2.jpg","stimuli/organized/STATE/USED/Sdonut1.jpg","0"
"","2228","html-button-response","203","2.0.0","776267","pt3umwf66r2","otter","n/a","1","Which of these items did you see earlier?","","","","","test","","state","true","stimuli/organized/STATE/USED/Sdrum1.jpg","stimuli/organized/STATE/USED/Sdrum2.jpg","1"
"","1176","html-button-response","204","2.0.0","777445","pt3umwf66r2","otter","n/a","0","Which of these items did you see earlier?","","","","","test","","exemplar","true","stimuli/organized/EXEMPLAR/USED/Ebell1.jpg","stimuli/organized/EXEMPLAR/USED/Ebell2.jpg","0"
"","3433","html-button-response","205","2.0.0","780878","pt3umwf66r2","otter","n/a","1","Which of these items did you see earlier?","","","","","test","","state","true","stimuli/organized/STATE/USED/Scoffeemaker2.JPG","stimuli/organized/STATE/USED/Scoffeemaker1.JPG","1"
"","1489","html-button-response","206","2.0.0","782368","pt3umwf66r2","otter","n/a","0","Which of these items did you see earlier?","","","","","test","","state","false","stimuli/organized/STATE/USED/Scookies2.JPG","stimuli/organized/STATE/USED/Scookies1.JPG","1"
"","1345","html-button-response","207","2.0.0","783714","pt3umwf66r2","otter","n/a","1","Which of these items did you see earlier?","","","","","test","","exemplar","true","stimuli/organized/EXEMPLAR/USED/Echisel1.jpg","stimuli/organized/EXEMPLAR/USED/Echisel2.jpg","1"
"","1292","html-button-response","208","2.0.0","785007","pt3umwf66r2","otter","n/a","0","Which of these items did you see earlier?","","","","","test","","state","true","stimuli/organized/STATE/USED/Sbelt2.jpg","stimuli/organized/STATE/USED/Sbelt1.jpg","0"
"","1338","html-button-response","209","2.0.0","786346","pt3umwf66r2","otter","n/a","1","Which of these items did you see earlier?","","","","","test","","state","false","stimuli/organized/STATE/USED/Spie2.JPG","stimuli/organized/STATE/USED/Spie1.JPG","0"
"","2198","html-button-response","210","2.0.0","788545","pt3umwf66r2","otter","n/a","0","Which of these items did you see earlier?","","","","","test","","novel","true","stimuli/organized/Novel pairs (tested)/n08aoven.jpg","stimuli/organized/Novel pairs (tested)/n08bpaperclip.jpg","0"
"","1368","html-button-response","211","2.0.0","789914","pt3umwf66r2","otter","n/a","1","Which of these items did you see earlier?","","","","","test","","state","true","stimuli/organized/STATE/USED/Sdie2.jpg","stimuli/organized/STATE/USED/Sdie1.jpg","1"
"","1689","html-button-response","212","2.0.0","791603","pt3umwf66r2","otter","n/a","0","Which of these items did you see earlier?","","","","","test","","state","false","stimuli/organized/STATE/USED/Sbureau1.JPG","stimuli/organized/STATE/USED/Sbureau2.JPG","1"
"","3346","html-button-response","213","2.0.0","794949","pt3umwf66r2","otter","n/a","1","Which of these items did you see earlier?","","","","","test","","exemplar","true","stimuli/organized/EXEMPLAR/USED/Eframe1.jpg","stimuli/organized/EXEMPLAR/USED/Eframe2.jpg","1"
"","2198","html-button-response","214","2.0.0","797148","pt3umwf66r2","otter","n/a","1","Which of these items did you see earlier?","","","","","test","","state","false","stimuli/organized/STATE/USED/Sscissors2.JPG","stimuli/organized/STATE/USED/Sscissors1.JPG","0"
"","2086","html-button-response","215","2.0.0","799235","pt3umwf66r2","otter","n/a","1","Which of these items did you see earlier?","","","","","test","","state","true","stimuli/organized/STATE/USED/Sbottles2.JPG","stimuli/organized/STATE/USED/Sbottles1.JPG","1"
"","1675","html-button-response","216","2.0.0","800910","pt3umwf66r2","otter","n/a","1","Which of these items did you see earlier?","","","","","test","","exemplar","true","stimuli/organized/EXEMPLAR/USED/Ecar1.jpg","stimuli/organized/EXEMPLAR/USED/Ecar2.jpg","1"
"","8103","html-button-response","217","2.0.0","809013","pt3umwf66r2","otter","n/a","1","Which of these items did you see earlier?","","","","","test","","novel","false","stimuli/organized/Novel pairs (tested)/n12bwatch.jpg","stimuli/organized/Novel pairs (tested)/n12atelescope.jpg","0"
"","1738","html-button-response","218","2.0.0","810751","pt3umwf66r2","otter","n/a","1","Which of these items did you see earlier?","","","","","test","","state","true","stimuli/organized/STATE/USED/Sdryer2.jpg","stimuli/organized/STATE/USED/Sdryer1.jpg","1"
"","1320","html-button-response","219","2.0.0","812072","pt3umwf66r2","otter","n/a","1","Which of these items did you see earlier?","","","","","test","","exemplar","true","stimuli/organized/EXEMPLAR/USED/Econe1.jpg","stimuli/organized/EXEMPLAR/USED/Econe2.jpg","1"
"","1576","html-button-response","220","2.0.0","813649","pt3umwf66r2","otter","n/a","0","Which of these items did you see earlier?","","","","","test","","state","true","stimuli/organized/STATE/USED/Seggs1.jpg","stimuli/organized/STATE/USED/Seggs2.jpg","0"
"","1283","html-button-response","221","2.0.0","814932","pt3umwf66r2","otter","n/a","0","Which of these items did you see earlier?","","","","","test","","novel","true","stimuli/organized/Novel pairs (tested)/n04ayarn.jpg","stimuli/organized/Novel pairs (tested)/n04bbandaid.jpg","0"
"","1431","html-button-response","222","2.0.0","816364","pt3umwf66r2","otter","n/a","1","Which of these items did you see earlier?","","","","","test","","state","true","stimuli/organized/STATE/USED/Sgiftbag2.jpg","stimuli/organized/STATE/USED/Sgiftbag1.jpg","1"
"","1498","html-button-response","223","2.0.0","817863","pt3umwf66r2","otter","n/a","1","Which of these items did you see earlier?","","","","","test","","state","true","stimuli/organized/STATE/USED/Sgrinder2.jpg","stimuli/organized/STATE/USED/Sgrinder1.jpg","1"
"","1632","html-button-response","224","2.0.0","819495","pt3umwf66r2","otter","n/a","0","Which of these items did you see earlier?","","","","","test","","novel","true","stimuli/organized/Novel pairs (tested)/n07apotato.jpg","stimuli/organized/Novel pairs (tested)/n07bswimmingpool.jpg","0"
"","1167","html-button-response","225","2.0.0","820663","pt3umwf66r2","otter","n/a","0","Which of these items did you see earlier?","","","","","test","","state","true","stimuli/organized/STATE/USED/Sdresser2.jpg","stimuli/organized/STATE/USED/Sdresser1.jpg","0"
"","1315","html-button-response","226","2.0.0","821979","pt3umwf66r2","otter","n/a","1","Which of these items did you see earlier?","","","","","test","","exemplar","true","stimuli/organized/EXEMPLAR/USED/Edispenser2.jpg","stimuli/organized/EXEMPLAR/USED/Edispenser1.jpg","1"
"","942","html-button-response","227","2.0.0","822921","pt3umwf66r2","otter","n/a","1","Which of these items did you see earlier?","","","","","test","","novel","true","stimuli/organized/Novel pairs (tested)/n17bweddingdress.jpg","stimuli/organized/Novel pairs (tested)/n17avendingmachine.jpg","1"
"","2543","html-button-response","228","2.0.0","825464","pt3umwf66r2","otter","n/a","0","Which of these items did you see earlier?","","","","","test","","state","true","stimuli/organized/STATE/USED/Sdishes1.JPG","stimuli/organized/STATE/USED/Sdishes2.JPG","0"
"","1636","html-button-response","229","2.0.0","827101","pt3umwf66r2","otter","n/a","1","Which of these items did you see earlier?","","","","","test","","state","true","stimuli/organized/STATE/USED/Scontainer2.JPG","stimuli/organized/STATE/USED/Scontainer1.JPG","1"
"","2572","html-button-response","230","2.0.0","829673","pt3umwf66r2","otter","n/a","1","Which of these items did you see earlier?","","","","","test","","state","true","stimuli/organized/STATE/USED/Schinesefoodbox1.jpg","stimuli/organized/STATE/USED/Schinesefoodbox2.jpg","1"
"","1747","html-button-response","231","2.0.0","831421","pt3umwf66r2","otter","n/a","0","Which of these items did you see earlier?","","","","","test","","exemplar","true","stimuli/organized/EXEMPLAR/USED/Ecamera2.jpg","stimuli/organized/EXEMPLAR/USED/Ecamera1.jpg","0"
"","1914","html-button-response","232","2.0.0","833335","pt3umwf66r2","otter","n/a","1","Which of these items did you see earlier?","","","","","test","","novel","true","stimuli/organized/Novel pairs (tested)/n06acane.jpg","stimuli/organized/Novel pairs (tested)/n06blipstick.jpg","1"
"","1150","html-button-response","233","2.0.0","834485","pt3umwf66r2","otter","n/a","0","Which of these items did you see earlier?","","","","","test","","novel","true","stimuli/organized/Novel pairs (tested)/n03acamel.jpg","stimuli/organized/Novel pairs (tested)/n03bbagel.jpg","0"
"","1367","html-button-response","234","2.0.0","835853","pt3umwf66r2","otter","n/a","1","Which of these items did you see earlier?","","","","","test","","exemplar","true","stimuli/organized/EXEMPLAR/USED/Ebread1.jpg","stimuli/organized/EXEMPLAR/USED/Ebread2.jpg","1"
"","1608","html-button-response","235","2.0.0","837462","pt3umwf66r2","otter","n/a","0","Which of these items did you see earlier?","","","","","test","","state","true","stimuli/organized/STATE/USED/Shairbrush1.jpg","stimuli/organized/STATE/USED/Shairbrush2.jpg","0"
"","1593","html-button-response","236","2.0.0","839056","pt3umwf66r2","otter","n/a","1","Which of these items did you see earlier?","","","","","test","","exemplar","true","stimuli/organized/EXEMPLAR/USED/Egrapes1.jpg","stimuli/organized/EXEMPLAR/USED/Egrapes2.jpg","1"
"","1483","html-button-response","237","2.0.0","840540","pt3umwf66r2","otter","n/a","0","Which of these items did you see earlier?","","","","","test","","novel","true","stimuli/organized/Novel pairs (tested)/n13bdustpan.jpg","stimuli/organized/Novel pairs (tested)/n13ablueberries.jpg","0"
"","1523","html-button-response","238","2.0.0","842064","pt3umwf66r2","otter","n/a","0","Which of these items did you see earlier?","","","","","test","","state","true","stimuli/organized/STATE/USED/Sfiretrucktoy2.jpg","stimuli/organized/STATE/USED/Sfiretrucktoy1.jpg","0"
"","1988","html-button-response","239","2.0.0","844052","pt3umwf66r2","otter","n/a","0","Which of these items did you see earlier?","","","","","test","","exemplar","true","stimuli/organized/EXEMPLAR/USED/Efan1.jpg","stimuli/organized/EXEMPLAR/USED/Efan2.jpg","0"
"","1515","html-button-response","240","2.0.0","845568","pt3umwf66r2","otter","n/a","0","Which of these items did you see earlier?","","","","","test","","exemplar","true","stimuli/organized/EXEMPLAR/USED/Ecabinet2.jpg","stimuli/organized/EXEMPLAR/USED/Ecabinet1.jpg","0"
"","1502","html-button-response","241","2.0.0","847070","pt3umwf66r2","otter","n/a","0","Which of these items did you see earlier?","","","","","test","","novel","true","stimuli/organized/Novel pairs (tested)/n19bhairbrush.jpg","stimuli/organized/Novel pairs (tested)/n19apickle.jpg","0"
"","1647","html-button-response","242","2.0.0","848718","pt3umwf66r2","otter","n/a","1","Which of these items did you see earlier?","","","","","test","","state","true","stimuli/organized/STATE/USED/Scrayons1.jpg","stimuli/organized/STATE/USED/Scrayons2.jpg","1"
"","1740","html-button-response","243","2.0.0","850458","pt3umwf66r2","otter","n/a","0","Which of these items did you see earlier?","","","","","test","","exemplar","true","stimuli/organized/EXEMPLAR/USED/Ebracelet1.jpg","stimuli/organized/EXEMPLAR/USED/Ebracelet2.jpg","0"
"","7628","survey-html-form","244","2.0.0","858087","pt3umwf66r2","otter","n/a","{""age"":""21"",""gender"":""female"",""memory_experiment_experience"":""yes""}","","","","","","","","","","","",""
"","21372","survey-text","245","2.0.0","879461","pt3umwf66r2","otter","n/a","{""task_guess"":""pattern recognition perhaps""}","","","","","","","","","","","",""
"","3483","survey-text","246","2.0.0","882944","pt3umwf66r2","otter","n/a","{""technical_issues_question"":""n/a""}","","","","","","","","","","","",""
