"success","rt","trial_type","trial_index","plugin_version","time_elapsed","random_id","participant","technical_issues","response","stimulus","timeout","failed_images","failed_audio","failed_video","trial_phase","is_repeat","test_type","correct","old_image","new_image","correct_position"
"true","1173","fullscreen","0","null","2180","pws19o5qf8o","fox","no","","","","","","","","","","","","",""
"","2623","survey-text","1","2.0.0","4807","pws19o5qf8o","fox","no","{""participant_id"":""fox""}","","","","","","","","","","","",""
"","9258","html-keyboard-response","2","2.0.0","14068","pws19o5qf8o","fox","no"," ","
      <p>In this experiment, a series of objects will be displayed.</p>
      <p>Try to memorize as much as possible about the objects.</p>
      <p>If the image is a <strong> repeat</strong>, press the SPACEBAR.</p>
      <p>Press any key to begin.</p>
    ","","","","","","","","","","",""
"true","","preload","3","2.0.0","16677","pws19o5qf8o","fox","no","","","false","[]","[]","[]","","","","","","",""
"","null","html-keyboard-response","4","2.0.0","17680","pws19o5qf8o","fox","no","null","<div style=""font-size:60px;"">+</div>","","","","","","","","","","",""
"","null","image-keyboard-response","5","2.0.0","20685","pws19o5qf8o","fox","no","null","stimuli/organized/STATE/USED/Sgiftbag2.jpg","","","","","memory","false","state","true","","",""
"","null","html-keyboard-response","6","2.0.0","21689","pws19o5qf8o","fox","no","null","<div style=""font-size:60px; color:black;"">+</div>","","","","","","","","","","",""
"","null","image-keyboard-response","7","2.0.0","24693","pws19o5qf8o","fox","no","null","stimuli/organized/EXEMPLAR/USED/Eglobe1.jpg","","","","","memory","false","exemplar","true","","",""
"","null","html-keyboard-response","8","2.0.0","25696","pws19o5qf8o","fox","no","null","<div style=""font-size:60px; color:black;"">+</div>","","","","","","","","","","",""
"","null","image-keyboard-response","9","2.0.0","28699","pws19o5qf8o","fox","no","null","stimuli/organized/EXEMPLAR/USED/Ebicycle1.jpg","","","","","memory","false","exemplar","true","","",""
"","null","html-keyboard-response","10","2.0.0","29702","pws19o5qf8o","fox","no","null","<div style=""font-size:60px; color:black;"">+</div>","","","","","","","","","","",""
"","null","image-keyboard-response","11","2.0.0","32706","pws19o5qf8o","fox","no","null","stimuli/organized/EXEMPLAR/USED/Echisel1.jpg","","","","","memory","false","exemplar","true","","",""
"","null","html-keyboard-response","12","2.0.0","33708","pws19o5qf8o","fox","no","null","<div style=""font-size:60px; color:black;"">+</div>","","","","","","","","","","",""
"","null","image-keyboard-response","13","2.0.0","36712","pws19o5qf8o","fox","no","null","stimuli/organized/STATE/USED/Sscanner1.JPG","","","","","memory","false","state","true","","",""
"","null","html-keyboard-response","14","2.0.0","37716","pws19o5qf8o","fox","no","null","<div style=""font-size:60px; color:black;"">+</div>","","","","","","","","","","",""
"","null","image-keyboard-response","15","2.0.0","40719","pws19o5qf8o","fox","no","null","stimuli/organized/Novel pairs (tested)/n11abatteries.jpg","","","","","memory","false","novel","true","","",""
"","null","html-keyboard-response","16","2.0.0","41723","pws19o5qf8o","fox","no","null","<div style=""font-size:60px; color:black;"">+</div>","","","","","","","","","","",""
"","null","image-keyboard-response","17","2.0.0","44726","pws19o5qf8o","fox","no","null","stimuli/organized/Novel pairs (tested)/n02bsafetypin.jpg","","","","","memory","false","novel","true","","",""
"","null","html-keyboard-response","18","2.0.0","45728","pws19o5qf8o","fox","no","null","<div style=""font-size:60px; color:black;"">+</div>","","","","","","","","","","",""
"","null","image-keyboard-response","19","2.0.0","48732","pws19o5qf8o","fox","no","null","stimuli/organized/STATE/USED/Scrayons1.jpg","","","","","memory","false","state","true","","",""
"","null","html-keyboard-response","20","2.0.0","49735","pws19o5qf8o","fox","no","null","<div style=""font-size:60px; color:black;"">+</div>","","","","","","","","","","",""
"","null","image-keyboard-response","21","2.0.0","52739","pws19o5qf8o","fox","no","null","stimuli/organized/Novel pairs (tested)/n04ayarn.jpg","","","","","memory","false","novel","true","","",""
"","null","html-keyboard-response","22","2.0.0","53743","pws19o5qf8o","fox","no","null","<div style=""font-size:60px; color:black;"">+</div>","","","","","","","","","","",""
"","null","image-keyboard-response","23","2.0.0","56746","pws19o5qf8o","fox","no","null","stimuli/organized/EXEMPLAR/USED/Egame2.jpg","","","","","memory","false","exemplar","true","","",""
"","null","html-keyboard-response","24","2.0.0","57748","pws19o5qf8o","fox","no","null","<div style=""font-size:60px; color:black;"">+</div>","","","","","","","","","","",""
"","null","image-keyboard-response","25","2.0.0","60752","pws19o5qf8o","fox","no","null","stimuli/organized/EXEMPLAR/USED/Ecalculator2.jpg","","","","","memory","false","exemplar","true","","",""
"","null","html-keyboard-response","26","2.0.0","61755","pws19o5qf8o","fox","no","null","<div style=""font-size:60px; color:black;"">+</div>","","","","","","","","","","",""
"","null","image-keyboard-response","27","2.0.0","64758","pws19o5qf8o","fox","no","null","stimuli/organized/STATE/USED/Sbriefcase2.jpg","","","","","memory","false","state","true","","",""
"","null","html-keyboard-response","28","2.0.0","65761","pws19o5qf8o","fox","no","null","<div style=""font-size:60px; color:black;"">+</div>","","","","","","","","","","",""
"","null","image-keyboard-response","29","2.0.0","68764","pws19o5qf8o","fox","no","null","stimuli/organized/EXEMPLAR/USED/Egoggles1.jpg","","","","","memory","false","exemplar","true","","",""
"","null","html-keyboard-response","30","2.0.0","69768","pws19o5qf8o","fox","no","null","<div style=""font-size:60px; color:black;"">+</div>","","","","","","","","","","",""
"","null","image-keyboard-response","31","2.0.0","72770","pws19o5qf8o","fox","no","null","stimuli/organized/Novel pairs (tested)/n13bdustpan.jpg","","","","","memory","false","novel","true","","",""
"","null","html-keyboard-response","32","2.0.0","73773","pws19o5qf8o","fox","no","null","<div style=""font-size:60px; color:black;"">+</div>","","","","","","","","","","",""
"","null","image-keyboard-response","33","2.0.0","76776","pws19o5qf8o","fox","no","null","stimuli/organized/EXEMPLAR/USED/Echocolatebar1.jpg","","","","","memory","false","exemplar","true","","",""
"","null","html-keyboard-response","34","2.0.0","77778","pws19o5qf8o","fox","no","null","<div style=""font-size:60px; color:black;"">+</div>","","","","","","","","","","",""
"","null","image-keyboard-response","35","2.0.0","80782","pws19o5qf8o","fox","no","null","stimuli/organized/STATE/USED/Sscissors1.JPG","","","","","memory","false","state","true","","",""
"","null","html-keyboard-response","36","2.0.0","81785","pws19o5qf8o","fox","no","null","<div style=""font-size:60px; color:black;"">+</div>","","","","","","","","","","",""
"","null","image-keyboard-response","37","2.0.0","84788","pws19o5qf8o","fox","no","null","stimuli/organized/EXEMPLAR/USED/Edispenser2.jpg","","","","","memory","false","exemplar","true","","",""
"","null","html-keyboard-response","38","2.0.0","85790","pws19o5qf8o","fox","no","null","<div style=""font-size:60px; color:black;"">+</div>","","","","","","","","","","",""
"","null","image-keyboard-response","39","2.0.0","88793","pws19o5qf8o","fox","no","null","stimuli/organized/EXEMPLAR/USED/Efeather2.jpg","","","","","memory","false","exemplar","true","","",""
"","null","html-keyboard-response","40","2.0.0","89796","pws19o5qf8o","fox","no","null","<div style=""font-size:60px; color:black;"">+</div>","","","","","","","","","","",""
"","null","image-keyboard-response","41","2.0.0","92800","pws19o5qf8o","fox","no","null","stimuli/organized/STATE/USED/Scontainer2.JPG","","","","","memory","false","state","true","","",""
"","null","html-keyboard-response","42","2.0.0","93803","pws19o5qf8o","fox","no","null","<div style=""font-size:60px; color:black;"">+</div>","","","","","","","","","","",""
"","null","image-keyboard-response","43","2.0.0","96807","pws19o5qf8o","fox","no","null","stimuli/organized/EXEMPLAR/USED/Efan1.jpg","","","","","memory","false","exemplar","true","","",""
"","null","html-keyboard-response","44","2.0.0","97809","pws19o5qf8o","fox","no","null","<div style=""font-size:60px; color:black;"">+</div>","","","","","","","","","","",""
"","null","image-keyboard-response","45","2.0.0","100812","pws19o5qf8o","fox","no","null","stimuli/organized/STATE/USED/Sbox1.jpg","","","","","memory","false","state","true","","",""
"","null","html-keyboard-response","46","2.0.0","101815","pws19o5qf8o","fox","no","null","<div style=""font-size:60px; color:black;"">+</div>","","","","","","","","","","",""
"","null","image-keyboard-response","47","2.0.0","104819","pws19o5qf8o","fox","no","null","stimuli/organized/Novel pairs (tested)/n12bwatch.jpg","","","","","memory","false","novel","true","","",""
"","null","html-keyboard-response","48","2.0.0","105822","pws19o5qf8o","fox","no","null","<div style=""font-size:60px; color:black;"">+</div>","","","","","","","","","","",""
"","null","image-keyboard-response","49","2.0.0","108825","pws19o5qf8o","fox","no","null","stimuli/organized/EXEMPLAR/USED/Egrapes2.jpg","","","","","memory","false","exemplar","true","","",""
"","null","html-keyboard-response","50","2.0.0","109827","pws19o5qf8o","fox","no","null","<div style=""font-size:60px; color:black;"">+</div>","","","","","","","","","","",""
"","null","image-keyboard-response","51","2.0.0","112831","pws19o5qf8o","fox","no","null","stimuli/organized/EXEMPLAR/USED/Ecabinet2.jpg","","","","","memory","false","exemplar","true","","",""
"","null","html-keyboard-response","52","2.0.0","113834","pws19o5qf8o","fox","no","null","<div style=""font-size:60px; color:black;"">+</div>","","","","","","","","","","",""
"","null","image-keyboard-response","53","2.0.0","116838","pws19o5qf8o","fox","no","null","stimuli/organized/STATE/USED/Scookies1.JPG","","","","","memory","false","state","true","","",""
"","null","html-keyboard-response","54","2.0.0","117840","pws19o5qf8o","fox","no","null","<div style=""font-size:60px; color:black;"">+</div>","","","","","","","","","","",""
"","null","image-keyboard-response","55","2.0.0","120844","pws19o5qf8o","fox","no","null","stimuli/organized/STATE/USED/Sbooks1.JPG","","","","","memory","false","state","true","","",""
"","null","html-keyboard-response","56","2.0.0","121846","pws19o5qf8o","fox","no","null","<div style=""font-size:60px; color:black;"">+</div>","","","","","","","","","","",""
"","null","image-keyboard-response","57","2.0.0","124850","pws19o5qf8o","fox","no","null","stimuli/organized/EXEMPLAR/USED/Eframe1.jpg","","","","","memory","false","exemplar","true","","",""
"","null","html-keyboard-response","58","2.0.0","125853","pws19o5qf8o","fox","no","null","<div style=""font-size:60px; color:black;"">+</div>","","","","","","","","","","",""
"","null","image-keyboard-response","59","2.0.0","128856","pws19o5qf8o","fox","no","null","stimuli/organized/Novel pairs (tested)/n07apotato.jpg","","","","","memory","false","novel","true","","",""
"","null","html-keyboard-response","60","2.0.0","129858","pws19o5qf8o","fox","no","null","<div style=""font-size:60px; color:black;"">+</div>","","","","","","","","","","",""
"","null","image-keyboard-response","61","2.0.0","132861","pws19o5qf8o","fox","no","null","stimuli/organized/Novel pairs (tested)/n01bcoin.jpg","","","","","memory","false","novel","true","","",""
"","null","html-keyboard-response","62","2.0.0","133864","pws19o5qf8o","fox","no","null","<div style=""font-size:60px; color:black;"">+</div>","","","","","","","","","","",""
"","null","image-keyboard-response","63","2.0.0","136867","pws19o5qf8o","fox","no","null","stimuli/organized/STATE/USED/Spotpan1.JPG","","","","","memory","false","state","true","","",""
"","null","html-keyboard-response","64","2.0.0","137870","pws19o5qf8o","fox","no","null","<div style=""font-size:60px; color:black;"">+</div>","","","","","","","","","","",""
"","null","image-keyboard-response","65","2.0.0","140874","pws19o5qf8o","fox","no","null","stimuli/organized/STATE/USED/Slaptop1.JPG","","","","","memory","false","state","true","","",""
"","null","html-keyboard-response","66","2.0.0","141876","pws19o5qf8o","fox","no","null","<div style=""font-size:60px; color:black;"">+</div>","","","","","","","","","","",""
"","null","image-keyboard-response","67","2.0.0","144880","pws19o5qf8o","fox","no","null","stimuli/organized/STATE/USED/Spie2.JPG","","","","","memory","false","state","true","","",""
"","null","html-keyboard-response","68","2.0.0","145882","pws19o5qf8o","fox","no","null","<div style=""font-size:60px; color:black;"">+</div>","","","","","","","","","","",""
"","null","image-keyboard-response","69","2.0.0","148886","pws19o5qf8o","fox","no","null","stimuli/organized/EXEMPLAR/USED/Econe1.jpg","","","","","memory","false","exemplar","true","","",""
"","null","html-keyboard-response","70","2.0.0","149889","pws19o5qf8o","fox","no","null","<div style=""font-size:60px; color:black;"">+</div>","","","","","","","","","","",""
"","null","image-keyboard-response","71","2.0.0","152892","pws19o5qf8o","fox","no","null","stimuli/organized/Novel pairs (tested)/n05abarrel.jpg","","","","","memory","false","novel","true","","",""
"","null","html-keyboard-response","72","2.0.0","153895","pws19o5qf8o","fox","no","null","<div style=""font-size:60px; color:black;"">+</div>","","","","","","","","","","",""
"","null","image-keyboard-response","73","2.0.0","156898","pws19o5qf8o","fox","no","null","stimuli/organized/EXEMPLAR/USED/Ebell2.jpg","","","","","memory","false","exemplar","true","","",""
"","null","html-keyboard-response","74","2.0.0","157900","pws19o5qf8o","fox","no","null","<div style=""font-size:60px; color:black;"">+</div>","","","","","","","","","","",""
"","null","image-keyboard-response","75","2.0.0","160904","pws19o5qf8o","fox","no","null","stimuli/organized/Novel pairs (tested)/n06acane.jpg","","","","","memory","false","novel","true","","",""
"","null","html-keyboard-response","76","2.0.0","161907","pws19o5qf8o","fox","no","null","<div style=""font-size:60px; color:black;"">+</div>","","","","","","","","","","",""
"","null","image-keyboard-response","77","2.0.0","164911","pws19o5qf8o","fox","no","null","stimuli/organized/STATE/USED/Sjuiceglass1.JPG","","","","","memory","false","state","true","","",""
"","null","html-keyboard-response","78","2.0.0","165913","pws19o5qf8o","fox","no","null","<div style=""font-size:60px; color:black;"">+</div>","","","","","","","","","","",""
"","null","image-keyboard-response","79","2.0.0","168917","pws19o5qf8o","fox","no","null","stimuli/organized/STATE/USED/Sbabytoy2.JPG","","","","","memory","false","state","true","","",""
"","null","html-keyboard-response","80","2.0.0","169920","pws19o5qf8o","fox","no","null","<div style=""font-size:60px; color:black;"">+</div>","","","","","","","","","","",""
"","null","image-keyboard-response","81","2.0.0","172923","pws19o5qf8o","fox","no","null","stimuli/organized/STATE/USED/Sgrinder1.jpg","","","","","memory","false","state","true","","",""
"","null","html-keyboard-response","82","2.0.0","173926","pws19o5qf8o","fox","no","null","<div style=""font-size:60px; color:black;"">+</div>","","","","","","","","","","",""
"","null","image-keyboard-response","83","2.0.0","176928","pws19o5qf8o","fox","no","null","stimuli/organized/STATE/USED/Shairbrush1.jpg","","","","","memory","false","state","true","","",""
"","null","html-keyboard-response","84","2.0.0","177931","pws19o5qf8o","fox","no","null","<div style=""font-size:60px; color:black;"">+</div>","","","","","","","","","","",""
"","null","image-keyboard-response","85","2.0.0","180934","pws19o5qf8o","fox","no","null","stimuli/organized/STATE/USED/Sdresser2.jpg","","","","","memory","false","state","true","","",""
"","null","html-keyboard-response","86","2.0.0","181937","pws19o5qf8o","fox","no","null","<div style=""font-size:60px; color:black;"">+</div>","","","","","","","","","","",""
"","null","image-keyboard-response","87","2.0.0","184941","pws19o5qf8o","fox","no","null","stimuli/organized/STATE/USED/Sphone1.JPG","","","","","memory","false","state","true","","",""
"","null","html-keyboard-response","88","2.0.0","185944","pws19o5qf8o","fox","no","null","<div style=""font-size:60px; color:black;"">+</div>","","","","","","","","","","",""
"","null","image-keyboard-response","89","2.0.0","188947","pws19o5qf8o","fox","no","null","stimuli/organized/STATE/USED/Sabacus2.jpg","","","","","memory","false","state","true","","",""
"","null","html-keyboard-response","90","2.0.0","189950","pws19o5qf8o","fox","no","null","<div style=""font-size:60px; color:black;"">+</div>","","","","","","","","","","",""
"","null","image-keyboard-response","91","2.0.0","192953","pws19o5qf8o","fox","no","null","stimuli/organized/STATE/USED/Schinesefoodbox1.jpg","","","","","memory","false","state","true","","",""
"","null","html-keyboard-response","92","2.0.0","193956","pws19o5qf8o","fox","no","null","<div style=""font-size:60px; color:black;"">+</div>","","","","","","","","","","",""
"","null","image-keyboard-response","93","2.0.0","196958","pws19o5qf8o","fox","no","null","stimuli/organized/STATE/USED/Sbureau1.JPG","","","","","memory","false","state","true","","",""
"","null","html-keyboard-response","94","2.0.0","197961","pws19o5qf8o","fox","no","null","<div style=""font-size:60px; color:black;"">+</div>","","","","","","","","","","",""
"","1569","image-keyboard-response","95","2.0.0","200964","pws19o5qf8o","fox","no"," ","stimuli/organized/EXEMPLAR/USED/Econe1.jpg","","","","","memory","true","exemplar","true","","",""
"","null","html-keyboard-response","96","2.0.0","201967","pws19o5qf8o","fox","no","null","<div style=""font-size:60px; color:green;"">+</div>","","","","","","","","","","",""
"","null","image-keyboard-response","97","2.0.0","204970","pws19o5qf8o","fox","no","null","stimuli/organized/EXEMPLAR/USED/Ecar1.jpg","","","","","memory","false","exemplar","true","","",""
"","null","html-keyboard-response","98","2.0.0","205973","pws19o5qf8o","fox","no","null","<div style=""font-size:60px; color:black;"">+</div>","","","","","","","","","","",""
"","null","image-keyboard-response","99","2.0.0","208977","pws19o5qf8o","fox","no","null","stimuli/organized/STATE/USED/Sfiretrucktoy1.jpg","","","","","memory","false","state","true","","",""
"","null","html-keyboard-response","100","2.0.0","209979","pws19o5qf8o","fox","no","null","<div style=""font-size:60px; color:black;"">+</div>","","","","","","","","","","",""
"","null","image-keyboard-response","101","2.0.0","212982","pws19o5qf8o","fox","no","null","stimuli/organized/STATE/USED/Sdryer2.jpg","","","","","memory","false","state","true","","",""
"","null","html-keyboard-response","102","2.0.0","213984","pws19o5qf8o","fox","no","null","<div style=""font-size:60px; color:black;"">+</div>","","","","","","","","","","",""
"","null","image-keyboard-response","103","2.0.0","216988","pws19o5qf8o","fox","no","null","stimuli/organized/STATE/USED/Sdonut2.jpg","","","","","memory","false","state","true","","",""
"","null","html-keyboard-response","104","2.0.0","217991","pws19o5qf8o","fox","no","null","<div style=""font-size:60px; color:black;"">+</div>","","","","","","","","","","",""
"","null","image-keyboard-response","105","2.0.0","220994","pws19o5qf8o","fox","no","null","stimuli/organized/STATE/USED/Scoffeemaker2.JPG","","","","","memory","false","state","true","","",""
"","null","html-keyboard-response","106","2.0.0","221997","pws19o5qf8o","fox","no","null","<div style=""font-size:60px; color:black;"">+</div>","","","","","","","","","","",""
"","null","image-keyboard-response","107","2.0.0","225001","pws19o5qf8o","fox","no","null","stimuli/organized/Novel pairs (tested)/n10bturkey.jpg","","","","","memory","false","novel","true","","",""
"","null","html-keyboard-response","108","2.0.0","226003","pws19o5qf8o","fox","no","null","<div style=""font-size:60px; color:black;"">+</div>","","","","","","","","","","",""
"","null","image-keyboard-response","109","2.0.0","229007","pws19o5qf8o","fox","no","null","stimuli/organized/STATE/USED/Sbrushes2.jpg","","","","","memory","false","state","true","","",""
"","null","html-keyboard-response","110","2.0.0","230009","pws19o5qf8o","fox","no","null","<div style=""font-size:60px; color:black;"">+</div>","","","","","","","","","","",""
"","null","image-keyboard-response","111","2.0.0","233013","pws19o5qf8o","fox","no","null","stimuli/organized/EXEMPLAR/USED/Ebread1.jpg","","","","","memory","false","exemplar","true","","",""
"","null","html-keyboard-response","112","2.0.0","234016","pws19o5qf8o","fox","no","null","<div style=""font-size:60px; color:black;"">+</div>","","","","","","","","","","",""
"","null","image-keyboard-response","113","2.0.0","237018","pws19o5qf8o","fox","no","null","stimuli/organized/EXEMPLAR/USED/Ebasket2.jpg","","","","","memory","false","exemplar","true","","",""
"","null","html-keyboard-response","114","2.0.0","238020","pws19o5qf8o","fox","no","null","<div style=""font-size:60px; color:black;"">+</div>","","","","","","","","","","",""
"","null","image-keyboard-response","115","2.0.0","241023","pws19o5qf8o","fox","no","null","stimuli/organized/STATE/USED/Sdie1.jpg","","","","","memory","false","state","true","","",""
"","null","html-keyboard-response","116","2.0.0","242026","pws19o5qf8o","fox","no","null","<div style=""font-size:60px; color:black;"">+</div>","","","","","","","","","","",""
"","null","image-keyboard-response","117","2.0.0","245028","pws19o5qf8o","fox","no","null","stimuli/organized/Novel pairs (tested)/n17avendingmachine.jpg","","","","","memory","false","novel","true","","",""
"","null","html-keyboard-response","118","2.0.0","246030","pws19o5qf8o","fox","no","null","<div style=""font-size:60px; color:black;"">+</div>","","","","","","","","","","",""
"","null","image-keyboard-response","119","2.0.0","249033","pws19o5qf8o","fox","no","null","stimuli/organized/Novel pairs (tested)/n18bsnail.jpg","","","","","memory","false","novel","true","","",""
"","null","html-keyboard-response","120","2.0.0","250036","pws19o5qf8o","fox","no","null","<div style=""font-size:60px; color:black;"">+</div>","","","","","","","","","","",""
"","null","image-keyboard-response","121","2.0.0","253039","pws19o5qf8o","fox","no","null","stimuli/organized/Novel pairs (tested)/n20bshelf.jpg","","","","","memory","false","novel","true","","",""
"","null","html-keyboard-response","122","2.0.0","254041","pws19o5qf8o","fox","no","null","<div style=""font-size:60px; color:black;"">+</div>","","","","","","","","","","",""
"","null","image-keyboard-response","123","2.0.0","257044","pws19o5qf8o","fox","no","null","stimuli/organized/Novel pairs (tested)/n03bbagel.jpg","","","","","memory","false","novel","true","","",""
"","null","html-keyboard-response","124","2.0.0","258047","pws19o5qf8o","fox","no","null","<div style=""font-size:60px; color:black;"">+</div>","","","","","","","","","","",""
"","null","image-keyboard-response","125","2.0.0","261051","pws19o5qf8o","fox","no","null","stimuli/organized/Novel pairs (tested)/n09bsaddle.jpg","","","","","memory","false","novel","true","","",""
"","null","html-keyboard-response","126","2.0.0","262054","pws19o5qf8o","fox","no","null","<div style=""font-size:60px; color:black;"">+</div>","","","","","","","","","","",""
"","1260","image-keyboard-response","127","2.0.0","265056","pws19o5qf8o","fox","no"," ","stimuli/organized/STATE/USED/Sabacus2.jpg","","","","","memory","true","state","true","","",""
"","null","html-keyboard-response","128","2.0.0","266058","pws19o5qf8o","fox","no","null","<div style=""font-size:60px; color:green;"">+</div>","","","","","","","","","","",""
"","996","image-keyboard-response","129","2.0.0","269061","pws19o5qf8o","fox","no"," ","stimuli/organized/Novel pairs (tested)/n08bpaperclip.jpg","","","","","memory","false","novel","false","","",""
"","null","html-keyboard-response","130","2.0.0","270064","pws19o5qf8o","fox","no","null","<div style=""font-size:60px; color:red;"">+</div>","","","","","","","","","","",""
"","715","image-keyboard-response","131","2.0.0","273067","pws19o5qf8o","fox","no"," ","stimuli/organized/EXEMPLAR/USED/Eglobe1.jpg","","","","","memory","true","exemplar","true","","",""
"","null","html-keyboard-response","132","2.0.0","274070","pws19o5qf8o","fox","no","null","<div style=""font-size:60px; color:green;"">+</div>","","","","","","","","","","",""
"","689","image-keyboard-response","133","2.0.0","277074","pws19o5qf8o","fox","no"," ","stimuli/organized/STATE/USED/Sbrushes2.jpg","","","","","memory","true","state","true","","",""
"","null","html-keyboard-response","134","2.0.0","278077","pws19o5qf8o","fox","no","null","<div style=""font-size:60px; color:green;"">+</div>","","","","","","","","","","",""
"","1048","image-keyboard-response","135","2.0.0","281080","pws19o5qf8o","fox","no"," ","stimuli/organized/STATE/USED/Sapplesgreenbasket1.jpg","","","","","memory","false","state","false","","",""
"","null","html-keyboard-response","136","2.0.0","282082","pws19o5qf8o","fox","no","null","<div style=""font-size:60px; color:red;"">+</div>","","","","","","","","","","",""
"","null","image-keyboard-response","137","2.0.0","285086","pws19o5qf8o","fox","no","null","stimuli/organized/EXEMPLAR/USED/Ebracelet1.jpg","","","","","memory","false","exemplar","true","","",""
"","null","html-keyboard-response","138","2.0.0","286089","pws19o5qf8o","fox","no","null","<div style=""font-size:60px; color:black;"">+</div>","","","","","","","","","","",""
"","null","image-keyboard-response","139","2.0.0","289092","pws19o5qf8o","fox","no","null","stimuli/organized/STATE/USED/Seggs1.jpg","","","","","memory","false","state","true","","",""
"","null","html-keyboard-response","140","2.0.0","290095","pws19o5qf8o","fox","no","null","<div style=""font-size:60px; color:black;"">+</div>","","","","","","","","","","",""
"","null","image-keyboard-response","141","2.0.0","293098","pws19o5qf8o","fox","no","null","stimuli/organized/STATE/USED/Sbottles2.JPG","","","","","memory","false","state","true","","",""
"","null","html-keyboard-response","142","2.0.0","294101","pws19o5qf8o","fox","no","null","<div style=""font-size:60px; color:black;"">+</div>","","","","","","","","","","",""
"","null","image-keyboard-response","143","2.0.0","297103","pws19o5qf8o","fox","no","null","stimuli/organized/STATE/USED/Sflask1.jpg","","","","","memory","false","state","true","","",""
"","null","html-keyboard-response","144","2.0.0","298106","pws19o5qf8o","fox","no","null","<div style=""font-size:60px; color:black;"">+</div>","","","","","","","","","","",""
"","null","image-keyboard-response","145","2.0.0","301110","pws19o5qf8o","fox","no","null","stimuli/organized/EXEMPLAR/USED/Ecamera1.jpg","","","","","memory","false","exemplar","true","","",""
"","null","html-keyboard-response","146","2.0.0","302113","pws19o5qf8o","fox","no","null","<div style=""font-size:60px; color:black;"">+</div>","","","","","","","","","","",""
"","null","image-keyboard-response","147","2.0.0","305116","pws19o5qf8o","fox","no","null","stimuli/organized/Novel pairs (tested)/n15aspiderweb.jpg","","","","","memory","false","novel","true","","",""
"","null","html-keyboard-response","148","2.0.0","306119","pws19o5qf8o","fox","no","null","<div style=""font-size:60px; color:black;"">+</div>","","","","","","","","","","",""
"","null","image-keyboard-response","149","2.0.0","309122","pws19o5qf8o","fox","no","null","stimuli/organized/EXEMPLAR/USED/Ebicycle1.jpg","","","","","memory","true","exemplar","false","","",""
"","null","html-keyboard-response","150","2.0.0","310124","pws19o5qf8o","fox","no","null","<div style=""font-size:60px; color:black;"">+</div>","","","","","","","","","","",""
"","null","image-keyboard-response","151","2.0.0","313126","pws19o5qf8o","fox","no","null","stimuli/organized/Novel pairs (tested)/n14bgolfball.jpg","","","","","memory","false","novel","true","","",""
"","null","html-keyboard-response","152","2.0.0","314129","pws19o5qf8o","fox","no","null","<div style=""font-size:60px; color:black;"">+</div>","","","","","","","","","","",""
"","2039","image-keyboard-response","153","2.0.0","317133","pws19o5qf8o","fox","no"," ","stimuli/organized/STATE/USED/Sdrum2.jpg","","","","","memory","false","state","false","","",""
"","null","html-keyboard-response","154","2.0.0","318134","pws19o5qf8o","fox","no","null","<div style=""font-size:60px; color:red;"">+</div>","","","","","","","","","","",""
"","null","image-keyboard-response","155","2.0.0","321137","pws19o5qf8o","fox","no","null","stimuli/organized/STATE/USED/Sbreadbox2.JPG","","","","","memory","false","state","true","","",""
"","null","html-keyboard-response","156","2.0.0","322140","pws19o5qf8o","fox","no","null","<div style=""font-size:60px; color:black;"">+</div>","","","","","","","","","","",""
"","734","image-keyboard-response","157","2.0.0","325143","pws19o5qf8o","fox","no"," ","stimuli/organized/Novel pairs (tested)/n16bhammer.jpg","","","","","memory","false","novel","false","","",""
"","null","html-keyboard-response","158","2.0.0","326146","pws19o5qf8o","fox","no","null","<div style=""font-size:60px; color:red;"">+</div>","","","","","","","","","","",""
"","null","image-keyboard-response","159","2.0.0","329150","pws19o5qf8o","fox","no","null","stimuli/organized/Novel pairs (tested)/n19bhairbrush.jpg","","","","","memory","false","novel","true","","",""
"","null","html-keyboard-response","160","2.0.0","330153","pws19o5qf8o","fox","no","null","<div style=""font-size:60px; color:black;"">+</div>","","","","","","","","","","",""
"","null","image-keyboard-response","161","2.0.0","333157","pws19o5qf8o","fox","no","null","stimuli/organized/STATE/USED/Sbelt2.jpg","","","","","memory","false","state","true","","",""
"","null","html-keyboard-response","162","2.0.0","334160","pws19o5qf8o","fox","no","null","<div style=""font-size:60px; color:black;"">+</div>","","","","","","","","","","",""
"","null","image-keyboard-response","163","2.0.0","337164","pws19o5qf8o","fox","no","null","stimuli/organized/STATE/USED/Sgiftbox2.jpg","","","","","memory","false","state","true","","",""
"","null","html-keyboard-response","164","2.0.0","338165","pws19o5qf8o","fox","no","null","<div style=""font-size:60px; color:black;"">+</div>","","","","","","","","","","",""
"","null","image-keyboard-response","165","2.0.0","341169","pws19o5qf8o","fox","no","null","stimuli/organized/STATE/USED/Sdishes2.JPG","","","","","memory","false","state","true","","",""
"","118324","html-button-response","166","2.0.0","459496","pws19o5qf8o","fox","no","0","<p>You have completed the study phase.</p><p>Take a short break. Press the button below when you are ready to continue.</p>","","","","","","","","","","",""
"","1546","html-keyboard-response","167","2.0.0","461044","pws19o5qf8o","fox","no"," ","<p>You will now be shown pairs of images.</p><p>Select the image you remember seeing during the study phase.</p><p>Focus on accuracy, not speed.</p><p>Press any key to begin.</p>","","","","","","","","","","",""
"","1464","html-button-response","168","2.0.0","462510","pws19o5qf8o","fox","no","0","Which of these items did you see earlier?","","","","","test","","novel","true","stimuli/organized/Novel pairs (tested)/n06acane.jpg","stimuli/organized/Novel pairs (tested)/n06blipstick.jpg","0"
"","1117","html-button-response","169","2.0.0","463630","pws19o5qf8o","fox","no","1","Which of these items did you see earlier?","","","","","test","","exemplar","true","stimuli/organized/EXEMPLAR/USED/Ecalculator2.jpg","stimuli/organized/EXEMPLAR/USED/Ecalculator1.jpg","1"
"","1423","html-button-response","170","2.0.0","465055","pws19o5qf8o","fox","no","1","Which of these items did you see earlier?","","","","","test","","novel","true","stimuli/organized/Novel pairs (tested)/n09bsaddle.jpg","stimuli/organized/Novel pairs (tested)/n09apenguin.jpg","1"
"","1431","html-button-response","171","2.0.0","466488","pws19o5qf8o","fox","no","1","Which of these items did you see earlier?","","","","","test","","state","true","stimuli/organized/STATE/USED/Sgiftbag2.jpg","stimuli/organized/STATE/USED/Sgiftbag1.jpg","1"
"","1802","html-button-response","172","2.0.0","468293","pws19o5qf8o","fox","no","1","Which of these items did you see earlier?","","","","","test","","novel","true","stimuli/organized/Novel pairs (tested)/n04ayarn.jpg","stimuli/organized/Novel pairs (tested)/n04bbandaid.jpg","1"
"","1802","html-button-response","173","2.0.0","470097","pws19o5qf8o","fox","no","0","Which of these items did you see earlier?","","","","","test","","state","true","stimuli/organized/STATE/USED/Sscanner1.JPG","stimuli/organized/STATE/USED/Sscanner2.JPG","0"
"","1266","html-button-response","174","2.0.0","471365","pws19o5qf8o","fox","no","1","Which of these items did you see earlier?","","","","","test","","state","true","stimuli/organized/STATE/USED/Sbrushes2.jpg","stimuli/organized/STATE/USED/Sbrushes1.jpg","1"
"","1795","html-button-response","175","2.0.0","473162","pws19o5qf8o","fox","no","1","Which of these items did you see earlier?","","","","","test","","state","true","stimuli/organized/STATE/USED/Sflask1.jpg","stimuli/organized/STATE/USED/Sflask2.jpg","1"
"","1027","html-button-response","176","2.0.0","474191","pws19o5qf8o","fox","no","1","Which of these items did you see earlier?","","","","","test","","novel","true","stimuli/organized/Novel pairs (tested)/n01bcoin.jpg","stimuli/organized/Novel pairs (tested)/n01aladybug.jpg","1"
"","2774","html-button-response","177","2.0.0","476967","pws19o5qf8o","fox","no","0","Which of these items did you see earlier?","","","","","test","","state","true","stimuli/organized/STATE/USED/Slaptop1.JPG","stimuli/organized/STATE/USED/Slaptop2.JPG","0"
"","1202","html-button-response","178","2.0.0","478172","pws19o5qf8o","fox","no","1","Which of these items did you see earlier?","","","","","test","","state","false","stimuli/organized/STATE/USED/Scrayons1.jpg","stimuli/organized/STATE/USED/Scrayons2.jpg","0"
"","1397","html-button-response","179","2.0.0","479571","pws19o5qf8o","fox","no","1","Which of these items did you see earlier?","","","","","test","","state","true","stimuli/organized/STATE/USED/Spotpan1.JPG","stimuli/organized/STATE/USED/Spotpan2.JPG","1"
"","1125","html-button-response","180","2.0.0","480699","pws19o5qf8o","fox","no","1","Which of these items did you see earlier?","","","","","test","","novel","true","stimuli/organized/Novel pairs (tested)/n05abarrel.jpg","stimuli/organized/Novel pairs (tested)/n05bcactus.jpg","1"
"","1472","html-button-response","181","2.0.0","482173","pws19o5qf8o","fox","no","0","Which of these items did you see earlier?","","","","","test","","state","true","stimuli/organized/STATE/USED/Sabacus2.jpg","stimuli/organized/STATE/USED/Sabacus1.jpg","0"
"","1347","html-button-response","182","2.0.0","483522","pws19o5qf8o","fox","no","1","Which of these items did you see earlier?","","","","","test","","novel","true","stimuli/organized/Novel pairs (tested)/n17avendingmachine.jpg","stimuli/organized/Novel pairs (tested)/n17bweddingdress.jpg","1"
"","3144","html-button-response","183","2.0.0","486669","pws19o5qf8o","fox","no","0","Which of these items did you see earlier?","","","","","test","","state","false","stimuli/organized/STATE/USED/Sgrinder1.jpg","stimuli/organized/STATE/USED/Sgrinder2.jpg","1"
"","1990","html-button-response","184","2.0.0","488661","pws19o5qf8o","fox","no","1","Which of these items did you see earlier?","","","","","test","","novel","true","stimuli/organized/Novel pairs (tested)/n10bturkey.jpg","stimuli/organized/Novel pairs (tested)/n10awindmill.jpg","1"
"","1143","html-button-response","185","2.0.0","489806","pws19o5qf8o","fox","no","0","Which of these items did you see earlier?","","","","","test","","state","true","stimuli/organized/STATE/USED/Spie2.JPG","stimuli/organized/STATE/USED/Spie1.JPG","0"
"","1185","html-button-response","186","2.0.0","490993","pws19o5qf8o","fox","no","0","Which of these items did you see earlier?","","","","","test","","state","true","stimuli/organized/STATE/USED/Sdresser2.jpg","stimuli/organized/STATE/USED/Sdresser1.jpg","0"
"","1244","html-button-response","187","2.0.0","492239","pws19o5qf8o","fox","no","0","Which of these items did you see earlier?","","","","","test","","state","true","stimuli/organized/STATE/USED/Sdonut2.jpg","stimuli/organized/STATE/USED/Sdonut1.jpg","0"
"","1924","html-button-response","188","2.0.0","494164","pws19o5qf8o","fox","no","1","Which of these items did you see earlier?","","","","","test","","state","true","stimuli/organized/STATE/USED/Sdrum2.jpg","stimuli/organized/STATE/USED/Sdrum1.jpg","1"
"","1127","html-button-response","189","2.0.0","495294","pws19o5qf8o","fox","no","0","Which of these items did you see earlier?","","","","","test","","novel","true","stimuli/organized/Novel pairs (tested)/n14bgolfball.jpg","stimuli/organized/Novel pairs (tested)/n14acigarette.jpg","0"
"","1200","html-button-response","190","2.0.0","496496","pws19o5qf8o","fox","no","0","Which of these items did you see earlier?","","","","","test","","exemplar","true","stimuli/organized/EXEMPLAR/USED/Ecamera1.jpg","stimuli/organized/EXEMPLAR/USED/Ecamera2.jpg","0"
"","1209","html-button-response","191","2.0.0","497707","pws19o5qf8o","fox","no","0","Which of these items did you see earlier?","","","","","test","","novel","true","stimuli/organized/Novel pairs (tested)/n15aspiderweb.jpg","stimuli/organized/Novel pairs (tested)/n15bfootball.jpg","0"
"","1373","html-button-response","192","2.0.0","499083","pws19o5qf8o","fox","no","0","Which of these items did you see earlier?","","","","","test","","exemplar","true","stimuli/organized/EXEMPLAR/USED/Egrapes2.jpg","stimuli/organized/EXEMPLAR/USED/Egrapes1.jpg","0"
"","1170","html-button-response","193","2.0.0","500255","pws19o5qf8o","fox","no","0","Which of these items did you see earlier?","","","","","test","","state","true","stimuli/organized/STATE/USED/Sbelt2.jpg","stimuli/organized/STATE/USED/Sbelt1.jpg","0"
"","2784","html-button-response","194","2.0.0","503041","pws19o5qf8o","fox","no","1","Which of these items did you see earlier?","","","","","test","","exemplar","true","stimuli/organized/EXEMPLAR/USED/Echocolatebar1.jpg","stimuli/organized/EXEMPLAR/USED/Echocolatebar2.jpg","1"
"","1653","html-button-response","195","2.0.0","504698","pws19o5qf8o","fox","no","0","Which of these items did you see earlier?","","","","","test","","exemplar","true","stimuli/organized/EXEMPLAR/USED/Echisel1.jpg","stimuli/organized/EXEMPLAR/USED/Echisel2.jpg","0"
"","2081","html-button-response","196","2.0.0","506781","pws19o5qf8o","fox","no","0","Which of these items did you see earlier?","","","","","test","","state","true","stimuli/organized/STATE/USED/Sbureau1.JPG","stimuli/organized/STATE/USED/Sbureau2.JPG","0"
"","1777","html-button-response","197","2.0.0","508560","pws19o5qf8o","fox","no","1","Which of these items did you see earlier?","","","","","test","","novel","true","stimuli/organized/Novel pairs (tested)/n20bshelf.jpg","stimuli/organized/Novel pairs (tested)/n20acarseat.jpg","1"
"","1310","html-button-response","198","2.0.0","509872","pws19o5qf8o","fox","no","1","Which of these items did you see earlier?","","","","","test","","novel","true","stimuli/organized/Novel pairs (tested)/n02bsafetypin.jpg","stimuli/organized/Novel pairs (tested)/n02aaxe.jpg","1"
"","1487","html-button-response","199","2.0.0","511361","pws19o5qf8o","fox","no","0","Which of these items did you see earlier?","","","","","test","","exemplar","true","stimuli/organized/EXEMPLAR/USED/Eglobe1.jpg","stimuli/organized/EXEMPLAR/USED/Eglobe2.jpg","0"
"","1492","html-button-response","200","2.0.0","512855","pws19o5qf8o","fox","no","1","Which of these items did you see earlier?","","","","","test","","state","true","stimuli/organized/STATE/USED/Scookies1.JPG","stimuli/organized/STATE/USED/Scookies2.JPG","1"
"","1470","html-button-response","201","2.0.0","514327","pws19o5qf8o","fox","no","1","Which of these items did you see earlier?","","","","","test","","exemplar","true","stimuli/organized/EXEMPLAR/USED/Ebasket2.jpg","stimuli/organized/EXEMPLAR/USED/Ebasket1.jpg","1"
"","2165","html-button-response","202","2.0.0","516494","pws19o5qf8o","fox","no","0","Which of these items did you see earlier?","","","","","test","","state","true","stimuli/organized/STATE/USED/Scoffeemaker2.JPG","stimuli/organized/STATE/USED/Scoffeemaker1.JPG","0"
"","1266","html-button-response","203","2.0.0","517762","pws19o5qf8o","fox","no","0","Which of these items did you see earlier?","","","","","test","","exemplar","true","stimuli/organized/EXEMPLAR/USED/Efeather2.jpg","stimuli/organized/EXEMPLAR/USED/Efeather1.jpg","0"
"","2048","html-button-response","204","2.0.0","519813","pws19o5qf8o","fox","no","1","Which of these items did you see earlier?","","","","","test","","novel","true","stimuli/organized/Novel pairs (tested)/n16bhammer.jpg","stimuli/organized/Novel pairs (tested)/n16abananas.jpg","1"
"","1795","html-button-response","205","2.0.0","521609","pws19o5qf8o","fox","no","1","Which of these items did you see earlier?","","","","","test","","exemplar","true","stimuli/organized/EXEMPLAR/USED/Ecar1.jpg","stimuli/organized/EXEMPLAR/USED/Ecar2.jpg","1"
"","2061","html-button-response","206","2.0.0","523672","pws19o5qf8o","fox","no","0","Which of these items did you see earlier?","","","","","test","","state","true","stimuli/organized/STATE/USED/Sjuiceglass1.JPG","stimuli/organized/STATE/USED/Sjuiceglass2.JPG","0"
"","2399","html-button-response","207","2.0.0","526074","pws19o5qf8o","fox","no","0","Which of these items did you see earlier?","","","","","test","","exemplar","true","stimuli/organized/EXEMPLAR/USED/Ecabinet2.jpg","stimuli/organized/EXEMPLAR/USED/Ecabinet1.jpg","0"
"","2205","html-button-response","208","2.0.0","528281","pws19o5qf8o","fox","no","1","Which of these items did you see earlier?","","","","","test","","exemplar","true","stimuli/organized/EXEMPLAR/USED/Ebread1.jpg","stimuli/organized/EXEMPLAR/USED/Ebread2.jpg","1"
"","3882","html-button-response","209","2.0.0","532165","pws19o5qf8o","fox","no","1","Which of these items did you see earlier?","","","","","test","","exemplar","true","stimuli/organized/EXEMPLAR/USED/Edispenser2.jpg","stimuli/organized/EXEMPLAR/USED/Edispenser1.jpg","1"
"","2511","html-button-response","210","2.0.0","534678","pws19o5qf8o","fox","no","1","Which of these items did you see earlier?","","","","","test","","state","true","stimuli/organized/STATE/USED/Sbabytoy2.JPG","stimuli/organized/STATE/USED/Sbabytoy1.JPG","1"
"","1514","html-button-response","211","2.0.0","536194","pws19o5qf8o","fox","no","1","Which of these items did you see earlier?","","","","","test","","exemplar","true","stimuli/organized/EXEMPLAR/USED/Efan1.jpg","stimuli/organized/EXEMPLAR/USED/Efan2.jpg","1"
"","879","html-button-response","212","2.0.0","537075","pws19o5qf8o","fox","no","0","Which of these items did you see earlier?","","","","","test","","state","true","stimuli/organized/STATE/USED/Sbottles2.JPG","stimuli/organized/STATE/USED/Sbottles1.JPG","0"
"","1423","html-button-response","213","2.0.0","538499","pws19o5qf8o","fox","no","0","Which of these items did you see earlier?","","","","","test","","novel","true","stimuli/organized/Novel pairs (tested)/n08bpaperclip.jpg","stimuli/organized/Novel pairs (tested)/n08aoven.jpg","0"
"","2587","html-button-response","214","2.0.0","541089","pws19o5qf8o","fox","no","0","Which of these items did you see earlier?","","","","","test","","state","true","stimuli/organized/STATE/USED/Sscissors1.JPG","stimuli/organized/STATE/USED/Sscissors2.JPG","0"
"","1198","html-button-response","215","2.0.0","542289","pws19o5qf8o","fox","no","1","Which of these items did you see earlier?","","","","","test","","exemplar","true","stimuli/organized/EXEMPLAR/USED/Econe1.jpg","stimuli/organized/EXEMPLAR/USED/Econe2.jpg","1"
"","1019","html-button-response","216","2.0.0","543310","pws19o5qf8o","fox","no","1","Which of these items did you see earlier?","","","","","test","","state","true","stimuli/organized/STATE/USED/Sfiretrucktoy1.jpg","stimuli/organized/STATE/USED/Sfiretrucktoy2.jpg","1"
"","2070","html-button-response","217","2.0.0","545382","pws19o5qf8o","fox","no","1","Which of these items did you see earlier?","","","","","test","","novel","true","stimuli/organized/Novel pairs (tested)/n11abatteries.jpg","stimuli/organized/Novel pairs (tested)/n11bsock.jpg","1"
"","1077","html-button-response","218","2.0.0","546461","pws19o5qf8o","fox","no","0","Which of these items did you see earlier?","","","","","test","","state","true","stimuli/organized/STATE/USED/Schinesefoodbox1.jpg","stimuli/organized/STATE/USED/Schinesefoodbox2.jpg","0"
"","1343","html-button-response","219","2.0.0","547806","pws19o5qf8o","fox","no","1","Which of these items did you see earlier?","","","","","test","","state","true","stimuli/organized/STATE/USED/Sbreadbox2.JPG","stimuli/organized/STATE/USED/Sbreadbox1.JPG","1"
"","1700","html-button-response","220","2.0.0","549508","pws19o5qf8o","fox","no","1","Which of these items did you see earlier?","","","","","test","","state","true","stimuli/organized/STATE/USED/Sphone1.JPG","stimuli/organized/STATE/USED/Sphone2.JPG","1"
"","2628","html-button-response","221","2.0.0","552138","pws19o5qf8o","fox","no","0","Which of these items did you see earlier?","","","","","test","","exemplar","false","stimuli/organized/EXEMPLAR/USED/Egame2.jpg","stimuli/organized/EXEMPLAR/USED/Egame1.jpg","1"
"","1157","html-button-response","222","2.0.0","553297","pws19o5qf8o","fox","no","1","Which of these items did you see earlier?","","","","","test","","exemplar","false","stimuli/organized/EXEMPLAR/USED/Egoggles1.jpg","stimuli/organized/EXEMPLAR/USED/Egoggles2.jpg","0"
"","1135","html-button-response","223","2.0.0","554434","pws19o5qf8o","fox","no","0","Which of these items did you see earlier?","","","","","test","","novel","true","stimuli/organized/Novel pairs (tested)/n19bhairbrush.jpg","stimuli/organized/Novel pairs (tested)/n19apickle.jpg","0"
"","2214","html-button-response","224","2.0.0","556650","pws19o5qf8o","fox","no","1","Which of these items did you see earlier?","","","","","test","","state","true","stimuli/organized/STATE/USED/Sapplesgreenbasket1.jpg","stimuli/organized/STATE/USED/Sapplesgreenbasket2.jpg","1"
"","5786","html-button-response","225","2.0.0","562439","pws19o5qf8o","fox","no","1","Which of these items did you see earlier?","","","","","test","","exemplar","true","stimuli/organized/EXEMPLAR/USED/Ebell2.jpg","stimuli/organized/EXEMPLAR/USED/Ebell1.jpg","1"
"","4265","html-button-response","226","2.0.0","566705","pws19o5qf8o","fox","no","1","Which of these items did you see earlier?","","","","","test","","state","true","stimuli/organized/STATE/USED/Shairbrush1.jpg","stimuli/organized/STATE/USED/Shairbrush2.jpg","1"
"","1149","html-button-response","227","2.0.0","567856","pws19o5qf8o","fox","no","1","Which of these items did you see earlier?","","","","","test","","exemplar","true","stimuli/organized/EXEMPLAR/USED/Eframe1.jpg","stimuli/organized/EXEMPLAR/USED/Eframe2.jpg","1"
"","4071","html-button-response","228","2.0.0","571929","pws19o5qf8o","fox","no","0","Which of these items did you see earlier?","","","","","test","","novel","true","stimuli/organized/Novel pairs (tested)/n18bsnail.jpg","stimuli/organized/Novel pairs (tested)/n18apretzel.jpg","0"
"","2082","html-button-response","229","2.0.0","574013","pws19o5qf8o","fox","no","1","Which of these items did you see earlier?","","","","","test","","novel","true","stimuli/organized/Novel pairs (tested)/n03bbagel.jpg","stimuli/organized/Novel pairs (tested)/n03acamel.jpg","1"
"","2848","html-button-response","230","2.0.0","576863","pws19o5qf8o","fox","no","1","Which of these items did you see earlier?","","","","","test","","novel","true","stimuli/organized/Novel pairs (tested)/n12bwatch.jpg","stimuli/organized/Novel pairs (tested)/n12atelescope.jpg","1"
"","6041","html-button-response","231","2.0.0","582907","pws19o5qf8o","fox","no","1","Which of these items did you see earlier?","","","","","test","","state","true","stimuli/organized/STATE/USED/Seggs1.jpg","stimuli/organized/STATE/USED/Seggs2.jpg","1"
"","2638","html-button-response","232","2.0.0","585546","pws19o5qf8o","fox","no","1","Which of these items did you see earlier?","","","","","test","","state","true","stimuli/organized/STATE/USED/Sbooks1.JPG","stimuli/organized/STATE/USED/Sbooks2.JPG","1"
"","1242","html-button-response","233","2.0.0","586790","pws19o5qf8o","fox","no","0","Which of these items did you see earlier?","","","","","test","","state","true","stimuli/organized/STATE/USED/Sbox1.jpg","stimuli/organized/STATE/USED/Sbox2.jpg","0"
"","2404","html-button-response","234","2.0.0","589196","pws19o5qf8o","fox","no","0","Which of these items did you see earlier?","","","","","test","","state","true","stimuli/organized/STATE/USED/Sgiftbox2.jpg","stimuli/organized/STATE/USED/Sgiftbox1.jpg","0"
"","1300","html-button-response","235","2.0.0","590498","pws19o5qf8o","fox","no","1","Which of these items did you see earlier?","","","","","test","","state","true","stimuli/organized/STATE/USED/Sdie1.jpg","stimuli/organized/STATE/USED/Sdie2.jpg","1"
"","2321","html-button-response","236","2.0.0","592822","pws19o5qf8o","fox","no","0","Which of these items did you see earlier?","","","","","test","","exemplar","false","stimuli/organized/EXEMPLAR/USED/Ebicycle1.jpg","stimuli/organized/EXEMPLAR/USED/Ebicycle2.jpg","1"
"","1406","html-button-response","237","2.0.0","594230","pws19o5qf8o","fox","no","0","Which of these items did you see earlier?","","","","","test","","state","true","stimuli/organized/STATE/USED/Scontainer2.JPG","stimuli/organized/STATE/USED/Scontainer1.JPG","0"
"","2856","html-button-response","238","2.0.0","597087","pws19o5qf8o","fox","no","1","Which of these items did you see earlier?","","","","","test","","state","false","stimuli/organized/STATE/USED/Sdryer2.jpg","stimuli/organized/STATE/USED/Sdryer1.jpg","0"
"","1293","html-button-response","239","2.0.0","598382","pws19o5qf8o","fox","no","0","Which of these items did you see earlier?","","","","","test","","state","false","stimuli/organized/STATE/USED/Sbriefcase2.jpg","stimuli/organized/STATE/USED/Sbriefcase1.jpg","1"
"","1192","html-button-response","240","2.0.0","599576","pws19o5qf8o","fox","no","0","Which of these items did you see earlier?","","","","","test","","exemplar","true","stimuli/organized/EXEMPLAR/USED/Ebracelet1.jpg","stimuli/organized/EXEMPLAR/USED/Ebracelet2.jpg","0"
"","1447","html-button-response","241","2.0.0","601025","pws19o5qf8o","fox","no","1","Which of these items did you see earlier?","","","","","test","","state","true","stimuli/organized/STATE/USED/Sdishes2.JPG","stimuli/organized/STATE/USED/Sdishes1.JPG","1"
"","871","html-button-response","242","2.0.0","601898","pws19o5qf8o","fox","no","1","Which of these items did you see earlier?","","","","","test","","novel","true","stimuli/organized/Novel pairs (tested)/n07apotato.jpg","stimuli/organized/Novel pairs (tested)/n07bswimmingpool.jpg","1"
"","2454","html-button-response","243","2.0.0","604355","pws19o5qf8o","fox","no","0","Which of these items did you see earlier?","","","","","test","","novel","true","stimuli/organized/Novel pairs (tested)/n13bdustpan.jpg","stimuli/organized/Novel pairs (tested)/n13ablueberries.jpg","0"
"","5905","survey-html-form","244","2.0.0","610263","pws19o5qf8o","fox","no","{""age"":""21"",""gender"":""female"",""memory_experiment_experience"":""yes""}","","","","","","","","","","","",""
"","9543","survey-text","245","2.0.0","619809","pws19o5qf8o","fox","no","{""task_guess"":""misremembering similar images""}","","","","","","","","","","","",""
"","1950","survey-text","246","2.0.0","621762","pws19o5qf8o","fox","no","{""technical_issues_question"":""no""}","","","","","","","","","","","",""
