"success","rt","trial_type","trial_index","plugin_version","time_elapsed","random_id","participant","technical_issues","response","stimulus","timeout","failed_images","failed_audio","failed_video","trial_phase","is_repeat","test_type","correct","old_image","new_image","correct_position"
"true","805","fullscreen","0","null","1810","pxgoxfozkk5","badger","no","","","","","","","","","","","","",""
"","2760","survey-text","1","2.0.0","4572","pxgoxfozkk5","badger","no","{""participant_id"":""badger""}","","","","","","","","","","","",""
"","3680","html-keyboard-response","2","2.0.0","8254","pxgoxfozkk5","badger","no"," ","
      <p>In this experiment, a series of objects will be displayed.</p>
      <p>Try to memorize as much as possible about the objects.</p>
      <p>If the image is a <strong> repeat</strong>, press the SPACEBAR.</p>
      <p>Press any key to begin.</p>
    ","","","","","","","","","","",""
"true","","preload","3","2.0.0","8838","pxgoxfozkk5","badger","no","","","false","[]","[]","[]","","","","","","",""
"","null","html-keyboard-response","4","2.0.0","9841","pxgoxfozkk5","badger","no","null","<div style=""font-size:60px;"">+</div>","","","","","","","","","","",""
"","null","image-keyboard-response","5","2.0.0","12847","pxgoxfozkk5","badger","no","null","stimuli/organized/STATE/USED/Sgiftbag1.jpg","","","","","memory","false","state","true","","",""
"","null","html-keyboard-response","6","2.0.0","13850","pxgoxfozkk5","badger","no","null","<div style=""font-size:60px; color:black;"">+</div>","","","","","","","","","","",""
"","null","image-keyboard-response","7","2.0.0","16853","pxgoxfozkk5","badger","no","null","stimuli/organized/Novel pairs (tested)/n09bsaddle.jpg","","","","","memory","false","novel","true","","",""
"","null","html-keyboard-response","8","2.0.0","17856","pxgoxfozkk5","badger","no","null","<div style=""font-size:60px; color:black;"">+</div>","","","","","","","","","","",""
"","null","image-keyboard-response","9","2.0.0","20860","pxgoxfozkk5","badger","no","null","stimuli/organized/EXEMPLAR/USED/Egrapes1.jpg","","","","","memory","false","exemplar","true","","",""
"","null","html-keyboard-response","10","2.0.0","21862","pxgoxfozkk5","badger","no","null","<div style=""font-size:60px; color:black;"">+</div>","","","","","","","","","","",""
"","null","image-keyboard-response","11","2.0.0","24865","pxgoxfozkk5","badger","no","null","stimuli/organized/Novel pairs (tested)/n16abananas.jpg","","","","","memory","false","novel","true","","",""
"","null","html-keyboard-response","12","2.0.0","25868","pxgoxfozkk5","badger","no","null","<div style=""font-size:60px; color:black;"">+</div>","","","","","","","","","","",""
"","null","image-keyboard-response","13","2.0.0","28871","pxgoxfozkk5","badger","no","null","stimuli/organized/EXEMPLAR/USED/Echocolatebar2.jpg","","","","","memory","false","exemplar","true","","",""
"","null","html-keyboard-response","14","2.0.0","29874","pxgoxfozkk5","badger","no","null","<div style=""font-size:60px; color:black;"">+</div>","","","","","","","","","","",""
"","null","image-keyboard-response","15","2.0.0","32877","pxgoxfozkk5","badger","no","null","stimuli/organized/EXEMPLAR/USED/Egoggles2.jpg","","","","","memory","false","exemplar","true","","",""
"","null","html-keyboard-response","16","2.0.0","33880","pxgoxfozkk5","badger","no","null","<div style=""font-size:60px; color:black;"">+</div>","","","","","","","","","","",""
"","null","image-keyboard-response","17","2.0.0","36882","pxgoxfozkk5","badger","no","null","stimuli/organized/STATE/USED/Sdonut1.jpg","","","","","memory","false","state","true","","",""
"","null","html-keyboard-response","18","2.0.0","37885","pxgoxfozkk5","badger","no","null","<div style=""font-size:60px; color:black;"">+</div>","","","","","","","","","","",""
"","null","image-keyboard-response","19","2.0.0","40888","pxgoxfozkk5","badger","no","null","stimuli/organized/Novel pairs (tested)/n04bbandaid.jpg","","","","","memory","false","novel","true","","",""
"","null","html-keyboard-response","20","2.0.0","41891","pxgoxfozkk5","badger","no","null","<div style=""font-size:60px; color:black;"">+</div>","","","","","","","","","","",""
"","null","image-keyboard-response","21","2.0.0","44894","pxgoxfozkk5","badger","no","null","stimuli/organized/EXEMPLAR/USED/Ebicycle2.jpg","","","","","memory","false","exemplar","true","","",""
"","null","html-keyboard-response","22","2.0.0","45897","pxgoxfozkk5","badger","no","null","<div style=""font-size:60px; color:black;"">+</div>","","","","","","","","","","",""
"","null","image-keyboard-response","23","2.0.0","48900","pxgoxfozkk5","badger","no","null","stimuli/organized/STATE/USED/Sdishes1.JPG","","","","","memory","false","state","true","","",""
"","null","html-keyboard-response","24","2.0.0","49902","pxgoxfozkk5","badger","no","null","<div style=""font-size:60px; color:black;"">+</div>","","","","","","","","","","",""
"","null","image-keyboard-response","25","2.0.0","52905","pxgoxfozkk5","badger","no","null","stimuli/organized/EXEMPLAR/USED/Ebracelet1.jpg","","","","","memory","false","exemplar","true","","",""
"","null","html-keyboard-response","26","2.0.0","53907","pxgoxfozkk5","badger","no","null","<div style=""font-size:60px; color:black;"">+</div>","","","","","","","","","","",""
"","null","image-keyboard-response","27","2.0.0","56910","pxgoxfozkk5","badger","no","null","stimuli/organized/STATE/USED/Seggs1.jpg","","","","","memory","false","state","true","","",""
"","null","html-keyboard-response","28","2.0.0","57912","pxgoxfozkk5","badger","no","null","<div style=""font-size:60px; color:black;"">+</div>","","","","","","","","","","",""
"","null","image-keyboard-response","29","2.0.0","60915","pxgoxfozkk5","badger","no","null","stimuli/organized/Novel pairs (tested)/n02aaxe.jpg","","","","","memory","false","novel","true","","",""
"","null","html-keyboard-response","30","2.0.0","61917","pxgoxfozkk5","badger","no","null","<div style=""font-size:60px; color:black;"">+</div>","","","","","","","","","","",""
"","null","image-keyboard-response","31","2.0.0","64920","pxgoxfozkk5","badger","no","null","stimuli/organized/STATE/USED/Sdresser2.jpg","","","","","memory","false","state","true","","",""
"","null","html-keyboard-response","32","2.0.0","65923","pxgoxfozkk5","badger","no","null","<div style=""font-size:60px; color:black;"">+</div>","","","","","","","","","","",""
"","null","image-keyboard-response","33","2.0.0","68925","pxgoxfozkk5","badger","no","null","stimuli/organized/Novel pairs (tested)/n06blipstick.jpg","","","","","memory","false","novel","true","","",""
"","null","html-keyboard-response","34","2.0.0","69928","pxgoxfozkk5","badger","no","null","<div style=""font-size:60px; color:black;"">+</div>","","","","","","","","","","",""
"","null","image-keyboard-response","35","2.0.0","72930","pxgoxfozkk5","badger","no","null","stimuli/organized/STATE/USED/Sbox2.jpg","","","","","memory","false","state","true","","",""
"","null","html-keyboard-response","36","2.0.0","73933","pxgoxfozkk5","badger","no","null","<div style=""font-size:60px; color:black;"">+</div>","","","","","","","","","","",""
"","null","image-keyboard-response","37","2.0.0","76936","pxgoxfozkk5","badger","no","null","stimuli/organized/EXEMPLAR/USED/Ebasket1.jpg","","","","","memory","false","exemplar","true","","",""
"","null","html-keyboard-response","38","2.0.0","77939","pxgoxfozkk5","badger","no","null","<div style=""font-size:60px; color:black;"">+</div>","","","","","","","","","","",""
"","null","image-keyboard-response","39","2.0.0","80942","pxgoxfozkk5","badger","no","null","stimuli/organized/EXEMPLAR/USED/Ecamera1.jpg","","","","","memory","false","exemplar","true","","",""
"","null","html-keyboard-response","40","2.0.0","81945","pxgoxfozkk5","badger","no","null","<div style=""font-size:60px; color:black;"">+</div>","","","","","","","","","","",""
"","null","image-keyboard-response","41","2.0.0","84948","pxgoxfozkk5","badger","no","null","stimuli/organized/EXEMPLAR/USED/Efeather1.jpg","","","","","memory","false","exemplar","true","","",""
"","null","html-keyboard-response","42","2.0.0","85950","pxgoxfozkk5","badger","no","null","<div style=""font-size:60px; color:black;"">+</div>","","","","","","","","","","",""
"","null","image-keyboard-response","43","2.0.0","88953","pxgoxfozkk5","badger","no","null","stimuli/organized/STATE/USED/Sbreadbox2.JPG","","","","","memory","false","state","true","","",""
"","null","html-keyboard-response","44","2.0.0","89956","pxgoxfozkk5","badger","no","null","<div style=""font-size:60px; color:black;"">+</div>","","","","","","","","","","",""
"","null","image-keyboard-response","45","2.0.0","92959","pxgoxfozkk5","badger","no","null","stimuli/organized/STATE/USED/Scrayons2.jpg","","","","","memory","false","state","true","","",""
"","null","html-keyboard-response","46","2.0.0","93962","pxgoxfozkk5","badger","no","null","<div style=""font-size:60px; color:black;"">+</div>","","","","","","","","","","",""
"","null","image-keyboard-response","47","2.0.0","96965","pxgoxfozkk5","badger","no","null","stimuli/organized/STATE/USED/Sflask2.jpg","","","","","memory","false","state","true","","",""
"","null","html-keyboard-response","48","2.0.0","97967","pxgoxfozkk5","badger","no","null","<div style=""font-size:60px; color:black;"">+</div>","","","","","","","","","","",""
"","null","image-keyboard-response","49","2.0.0","100970","pxgoxfozkk5","badger","no","null","stimuli/organized/STATE/USED/Sscissors1.JPG","","","","","memory","false","state","true","","",""
"","null","html-keyboard-response","50","2.0.0","101973","pxgoxfozkk5","badger","no","null","<div style=""font-size:60px; color:black;"">+</div>","","","","","","","","","","",""
"","null","image-keyboard-response","51","2.0.0","104976","pxgoxfozkk5","badger","no","null","stimuli/organized/STATE/USED/Sbureau2.JPG","","","","","memory","false","state","true","","",""
"","null","html-keyboard-response","52","2.0.0","105978","pxgoxfozkk5","badger","no","null","<div style=""font-size:60px; color:black;"">+</div>","","","","","","","","","","",""
"","null","image-keyboard-response","53","2.0.0","108981","pxgoxfozkk5","badger","no","null","stimuli/organized/STATE/USED/Scontainer1.JPG","","","","","memory","false","state","true","","",""
"","null","html-keyboard-response","54","2.0.0","109984","pxgoxfozkk5","badger","no","null","<div style=""font-size:60px; color:black;"">+</div>","","","","","","","","","","",""
"","798","image-keyboard-response","55","2.0.0","112987","pxgoxfozkk5","badger","no"," ","stimuli/organized/Novel pairs (tested)/n09bsaddle.jpg","","","","","memory","true","novel","true","","",""
"","null","html-keyboard-response","56","2.0.0","113989","pxgoxfozkk5","badger","no","null","<div style=""font-size:60px; color:green;"">+</div>","","","","","","","","","","",""
"","null","image-keyboard-response","57","2.0.0","116993","pxgoxfozkk5","badger","no","null","stimuli/organized/STATE/USED/Scookies2.JPG","","","","","memory","false","state","true","","",""
"","null","html-keyboard-response","58","2.0.0","117995","pxgoxfozkk5","badger","no","null","<div style=""font-size:60px; color:black;"">+</div>","","","","","","","","","","",""
"","null","image-keyboard-response","59","2.0.0","120999","pxgoxfozkk5","badger","no","null","stimuli/organized/EXEMPLAR/USED/Ecar2.jpg","","","","","memory","false","exemplar","true","","",""
"","null","html-keyboard-response","60","2.0.0","122001","pxgoxfozkk5","badger","no","null","<div style=""font-size:60px; color:black;"">+</div>","","","","","","","","","","",""
"","null","image-keyboard-response","61","2.0.0","125003","pxgoxfozkk5","badger","no","null","stimuli/organized/Novel pairs (tested)/n12atelescope.jpg","","","","","memory","false","novel","true","","",""
"","null","html-keyboard-response","62","2.0.0","126006","pxgoxfozkk5","badger","no","null","<div style=""font-size:60px; color:black;"">+</div>","","","","","","","","","","",""
"","null","image-keyboard-response","63","2.0.0","129009","pxgoxfozkk5","badger","no","null","stimuli/organized/STATE/USED/Schinesefoodbox1.jpg","","","","","memory","false","state","true","","",""
"","null","html-keyboard-response","64","2.0.0","130011","pxgoxfozkk5","badger","no","null","<div style=""font-size:60px; color:black;"">+</div>","","","","","","","","","","",""
"","1240","image-keyboard-response","65","2.0.0","133015","pxgoxfozkk5","badger","no"," ","stimuli/organized/STATE/USED/Sbelt1.jpg","","","","","memory","false","state","false","","",""
"","null","html-keyboard-response","66","2.0.0","134017","pxgoxfozkk5","badger","no","null","<div style=""font-size:60px; color:red;"">+</div>","","","","","","","","","","",""
"","null","image-keyboard-response","67","2.0.0","137020","pxgoxfozkk5","badger","no","null","stimuli/organized/Novel pairs (tested)/n18apretzel.jpg","","","","","memory","false","novel","true","","",""
"","null","html-keyboard-response","68","2.0.0","138021","pxgoxfozkk5","badger","no","null","<div style=""font-size:60px; color:black;"">+</div>","","","","","","","","","","",""
"","null","image-keyboard-response","69","2.0.0","141024","pxgoxfozkk5","badger","no","null","stimuli/organized/Novel pairs (tested)/n15bfootball.jpg","","","","","memory","false","novel","true","","",""
"","null","html-keyboard-response","70","2.0.0","142027","pxgoxfozkk5","badger","no","null","<div style=""font-size:60px; color:black;"">+</div>","","","","","","","","","","",""
"","null","image-keyboard-response","71","2.0.0","145029","pxgoxfozkk5","badger","no","null","stimuli/organized/STATE/USED/Sgiftbox1.jpg","","","","","memory","false","state","true","","",""
"","null","html-keyboard-response","72","2.0.0","146032","pxgoxfozkk5","badger","no","null","<div style=""font-size:60px; color:black;"">+</div>","","","","","","","","","","",""
"","null","image-keyboard-response","73","2.0.0","149036","pxgoxfozkk5","badger","no","null","stimuli/organized/STATE/USED/Scoffeemaker1.JPG","","","","","memory","false","state","true","","",""
"","null","html-keyboard-response","74","2.0.0","150038","pxgoxfozkk5","badger","no","null","<div style=""font-size:60px; color:black;"">+</div>","","","","","","","","","","",""
"","null","image-keyboard-response","75","2.0.0","153040","pxgoxfozkk5","badger","no","null","stimuli/organized/STATE/USED/Sdie1.jpg","","","","","memory","false","state","true","","",""
"","null","html-keyboard-response","76","2.0.0","154043","pxgoxfozkk5","badger","no","null","<div style=""font-size:60px; color:black;"">+</div>","","","","","","","","","","",""
"","null","image-keyboard-response","77","2.0.0","157046","pxgoxfozkk5","badger","no","null","stimuli/organized/STATE/USED/Sbottles2.JPG","","","","","memory","false","state","true","","",""
"","null","html-keyboard-response","78","2.0.0","158048","pxgoxfozkk5","badger","no","null","<div style=""font-size:60px; color:black;"">+</div>","","","","","","","","","","",""
"","null","image-keyboard-response","79","2.0.0","161051","pxgoxfozkk5","badger","no","null","stimuli/organized/EXEMPLAR/USED/Egame1.jpg","","","","","memory","false","exemplar","true","","",""
"","null","html-keyboard-response","80","2.0.0","162053","pxgoxfozkk5","badger","no","null","<div style=""font-size:60px; color:black;"">+</div>","","","","","","","","","","",""
"","null","image-keyboard-response","81","2.0.0","165056","pxgoxfozkk5","badger","no","null","stimuli/organized/STATE/USED/Sjuiceglass1.JPG","","","","","memory","false","state","true","","",""
"","null","html-keyboard-response","82","2.0.0","166058","pxgoxfozkk5","badger","no","null","<div style=""font-size:60px; color:black;"">+</div>","","","","","","","","","","",""
"","null","image-keyboard-response","83","2.0.0","169061","pxgoxfozkk5","badger","no","null","stimuli/organized/STATE/USED/Spie2.JPG","","","","","memory","false","state","true","","",""
"","null","html-keyboard-response","84","2.0.0","170064","pxgoxfozkk5","badger","no","null","<div style=""font-size:60px; color:black;"">+</div>","","","","","","","","","","",""
"","null","image-keyboard-response","85","2.0.0","173067","pxgoxfozkk5","badger","no","null","stimuli/organized/EXEMPLAR/USED/Econe2.jpg","","","","","memory","false","exemplar","true","","",""
"","null","html-keyboard-response","86","2.0.0","174069","pxgoxfozkk5","badger","no","null","<div style=""font-size:60px; color:black;"">+</div>","","","","","","","","","","",""
"","null","image-keyboard-response","87","2.0.0","177072","pxgoxfozkk5","badger","no","null","stimuli/organized/Novel pairs (tested)/n17bweddingdress.jpg","","","","","memory","false","novel","true","","",""
"","null","html-keyboard-response","88","2.0.0","178074","pxgoxfozkk5","badger","no","null","<div style=""font-size:60px; color:black;"">+</div>","","","","","","","","","","",""
"","null","image-keyboard-response","89","2.0.0","181077","pxgoxfozkk5","badger","no","null","stimuli/organized/Novel pairs (tested)/n07apotato.jpg","","","","","memory","false","novel","true","","",""
"","null","html-keyboard-response","90","2.0.0","182079","pxgoxfozkk5","badger","no","null","<div style=""font-size:60px; color:black;"">+</div>","","","","","","","","","","",""
"","1135","image-keyboard-response","91","2.0.0","185081","pxgoxfozkk5","badger","no"," ","stimuli/organized/Novel pairs (tested)/n15bfootball.jpg","","","","","memory","true","novel","true","","",""
"","null","html-keyboard-response","92","2.0.0","186084","pxgoxfozkk5","badger","no","null","<div style=""font-size:60px; color:green;"">+</div>","","","","","","","","","","",""
"","null","image-keyboard-response","93","2.0.0","189086","pxgoxfozkk5","badger","no","null","stimuli/organized/Novel pairs (tested)/n08aoven.jpg","","","","","memory","false","novel","true","","",""
"","null","html-keyboard-response","94","2.0.0","190088","pxgoxfozkk5","badger","no","null","<div style=""font-size:60px; color:black;"">+</div>","","","","","","","","","","",""
"","null","image-keyboard-response","95","2.0.0","193090","pxgoxfozkk5","badger","no","null","stimuli/organized/STATE/USED/Sapplesgreenbasket2.jpg","","","","","memory","false","state","true","","",""
"","null","html-keyboard-response","96","2.0.0","194093","pxgoxfozkk5","badger","no","null","<div style=""font-size:60px; color:black;"">+</div>","","","","","","","","","","",""
"","null","image-keyboard-response","97","2.0.0","197096","pxgoxfozkk5","badger","no","null","stimuli/organized/STATE/USED/Sbabytoy2.JPG","","","","","memory","false","state","true","","",""
"","null","html-keyboard-response","98","2.0.0","198098","pxgoxfozkk5","badger","no","null","<div style=""font-size:60px; color:black;"">+</div>","","","","","","","","","","",""
"","null","image-keyboard-response","99","2.0.0","201102","pxgoxfozkk5","badger","no","null","stimuli/organized/STATE/USED/Sgrinder1.jpg","","","","","memory","false","state","true","","",""
"","null","html-keyboard-response","100","2.0.0","202104","pxgoxfozkk5","badger","no","null","<div style=""font-size:60px; color:black;"">+</div>","","","","","","","","","","",""
"","null","image-keyboard-response","101","2.0.0","205107","pxgoxfozkk5","badger","no","null","stimuli/organized/Novel pairs (tested)/n19apickle.jpg","","","","","memory","false","novel","true","","",""
"","null","html-keyboard-response","102","2.0.0","206110","pxgoxfozkk5","badger","no","null","<div style=""font-size:60px; color:black;"">+</div>","","","","","","","","","","",""
"","null","image-keyboard-response","103","2.0.0","209113","pxgoxfozkk5","badger","no","null","stimuli/organized/EXEMPLAR/USED/Edispenser2.jpg","","","","","memory","false","exemplar","true","","",""
"","null","html-keyboard-response","104","2.0.0","210115","pxgoxfozkk5","badger","no","null","<div style=""font-size:60px; color:black;"">+</div>","","","","","","","","","","",""
"","null","image-keyboard-response","105","2.0.0","213117","pxgoxfozkk5","badger","no","null","stimuli/organized/STATE/USED/Sdryer2.jpg","","","","","memory","false","state","true","","",""
"","null","html-keyboard-response","106","2.0.0","214119","pxgoxfozkk5","badger","no","null","<div style=""font-size:60px; color:black;"">+</div>","","","","","","","","","","",""
"","null","image-keyboard-response","107","2.0.0","217121","pxgoxfozkk5","badger","no","null","stimuli/organized/Novel pairs (tested)/n01aladybug.jpg","","","","","memory","false","novel","true","","",""
"","null","html-keyboard-response","108","2.0.0","218123","pxgoxfozkk5","badger","no","null","<div style=""font-size:60px; color:black;"">+</div>","","","","","","","","","","",""
"","null","image-keyboard-response","109","2.0.0","221126","pxgoxfozkk5","badger","no","null","stimuli/organized/STATE/USED/Shairbrush1.jpg","","","","","memory","false","state","true","","",""
"","null","html-keyboard-response","110","2.0.0","222129","pxgoxfozkk5","badger","no","null","<div style=""font-size:60px; color:black;"">+</div>","","","","","","","","","","",""
"","809","image-keyboard-response","111","2.0.0","225131","pxgoxfozkk5","badger","no"," ","stimuli/organized/Novel pairs (tested)/n12atelescope.jpg","","","","","memory","true","novel","true","","",""
"","null","html-keyboard-response","112","2.0.0","226133","pxgoxfozkk5","badger","no","null","<div style=""font-size:60px; color:green;"">+</div>","","","","","","","","","","",""
"","null","image-keyboard-response","113","2.0.0","229136","pxgoxfozkk5","badger","no","null","stimuli/organized/EXEMPLAR/USED/Ecabinet1.jpg","","","","","memory","false","exemplar","true","","",""
"","null","html-keyboard-response","114","2.0.0","230139","pxgoxfozkk5","badger","no","null","<div style=""font-size:60px; color:black;"">+</div>","","","","","","","","","","",""
"","null","image-keyboard-response","115","2.0.0","233141","pxgoxfozkk5","badger","no","null","stimuli/organized/STATE/USED/Sbooks2.JPG","","","","","memory","false","state","true","","",""
"","null","html-keyboard-response","116","2.0.0","234144","pxgoxfozkk5","badger","no","null","<div style=""font-size:60px; color:black;"">+</div>","","","","","","","","","","",""
"","927","image-keyboard-response","117","2.0.0","237147","pxgoxfozkk5","badger","no"," ","stimuli/organized/Novel pairs (tested)/n06blipstick.jpg","","","","","memory","true","novel","true","","",""
"","null","html-keyboard-response","118","2.0.0","238150","pxgoxfozkk5","badger","no","null","<div style=""font-size:60px; color:green;"">+</div>","","","","","","","","","","",""
"","null","image-keyboard-response","119","2.0.0","241153","pxgoxfozkk5","badger","no","null","stimuli/organized/STATE/USED/Sphone1.JPG","","","","","memory","false","state","true","","",""
"","null","html-keyboard-response","120","2.0.0","242156","pxgoxfozkk5","badger","no","null","<div style=""font-size:60px; color:black;"">+</div>","","","","","","","","","","",""
"","null","image-keyboard-response","121","2.0.0","245159","pxgoxfozkk5","badger","no","null","stimuli/organized/Novel pairs (tested)/n10bturkey.jpg","","","","","memory","false","novel","true","","",""
"","null","html-keyboard-response","122","2.0.0","246161","pxgoxfozkk5","badger","no","null","<div style=""font-size:60px; color:black;"">+</div>","","","","","","","","","","",""
"","null","image-keyboard-response","123","2.0.0","249165","pxgoxfozkk5","badger","no","null","stimuli/organized/EXEMPLAR/USED/Ecalculator2.jpg","","","","","memory","false","exemplar","true","","",""
"","null","html-keyboard-response","124","2.0.0","250167","pxgoxfozkk5","badger","no","null","<div style=""font-size:60px; color:black;"">+</div>","","","","","","","","","","",""
"","null","image-keyboard-response","125","2.0.0","253170","pxgoxfozkk5","badger","no","null","stimuli/organized/STATE/USED/Sgrinder1.jpg","","","","","memory","true","state","false","","",""
"","null","html-keyboard-response","126","2.0.0","254172","pxgoxfozkk5","badger","no","null","<div style=""font-size:60px; color:black;"">+</div>","","","","","","","","","","",""
"","null","image-keyboard-response","127","2.0.0","257176","pxgoxfozkk5","badger","no","null","stimuli/organized/Novel pairs (tested)/n14bgolfball.jpg","","","","","memory","false","novel","true","","",""
"","null","html-keyboard-response","128","2.0.0","258178","pxgoxfozkk5","badger","no","null","<div style=""font-size:60px; color:black;"">+</div>","","","","","","","","","","",""
"","null","image-keyboard-response","129","2.0.0","261181","pxgoxfozkk5","badger","no","null","stimuli/organized/STATE/USED/Sdrum1.jpg","","","","","memory","false","state","true","","",""
"","null","html-keyboard-response","130","2.0.0","262183","pxgoxfozkk5","badger","no","null","<div style=""font-size:60px; color:black;"">+</div>","","","","","","","","","","",""
"","null","image-keyboard-response","131","2.0.0","265185","pxgoxfozkk5","badger","no","null","stimuli/organized/EXEMPLAR/USED/Eglobe2.jpg","","","","","memory","false","exemplar","true","","",""
"","null","html-keyboard-response","132","2.0.0","266188","pxgoxfozkk5","badger","no","null","<div style=""font-size:60px; color:black;"">+</div>","","","","","","","","","","",""
"","null","image-keyboard-response","133","2.0.0","269191","pxgoxfozkk5","badger","no","null","stimuli/organized/STATE/USED/Spotpan2.JPG","","","","","memory","false","state","true","","",""
"","null","html-keyboard-response","134","2.0.0","270194","pxgoxfozkk5","badger","no","null","<div style=""font-size:60px; color:black;"">+</div>","","","","","","","","","","",""
"","null","image-keyboard-response","135","2.0.0","273196","pxgoxfozkk5","badger","no","null","stimuli/organized/STATE/USED/Slaptop1.JPG","","","","","memory","false","state","true","","",""
"","null","html-keyboard-response","136","2.0.0","274198","pxgoxfozkk5","badger","no","null","<div style=""font-size:60px; color:black;"">+</div>","","","","","","","","","","",""
"","null","image-keyboard-response","137","2.0.0","277201","pxgoxfozkk5","badger","no","null","stimuli/organized/Novel pairs (tested)/n11abatteries.jpg","","","","","memory","false","novel","true","","",""
"","null","html-keyboard-response","138","2.0.0","278203","pxgoxfozkk5","badger","no","null","<div style=""font-size:60px; color:black;"">+</div>","","","","","","","","","","",""
"","null","image-keyboard-response","139","2.0.0","281206","pxgoxfozkk5","badger","no","null","stimuli/organized/STATE/USED/Sbrushes2.jpg","","","","","memory","false","state","true","","",""
"","null","html-keyboard-response","140","2.0.0","282208","pxgoxfozkk5","badger","no","null","<div style=""font-size:60px; color:black;"">+</div>","","","","","","","","","","",""
"","null","image-keyboard-response","141","2.0.0","285211","pxgoxfozkk5","badger","no","null","stimuli/organized/STATE/USED/Sfiretrucktoy2.jpg","","","","","memory","false","state","true","","",""
"","null","html-keyboard-response","142","2.0.0","286213","pxgoxfozkk5","badger","no","null","<div style=""font-size:60px; color:black;"">+</div>","","","","","","","","","","",""
"","null","image-keyboard-response","143","2.0.0","289216","pxgoxfozkk5","badger","no","null","stimuli/organized/Novel pairs (tested)/n03acamel.jpg","","","","","memory","false","novel","true","","",""
"","null","html-keyboard-response","144","2.0.0","290218","pxgoxfozkk5","badger","no","null","<div style=""font-size:60px; color:black;"">+</div>","","","","","","","","","","",""
"","null","image-keyboard-response","145","2.0.0","293230","pxgoxfozkk5","badger","no","null","stimuli/organized/STATE/USED/Sabacus2.jpg","","","","","memory","false","state","true","","",""
"","null","html-keyboard-response","146","2.0.0","294233","pxgoxfozkk5","badger","no","null","<div style=""font-size:60px; color:black;"">+</div>","","","","","","","","","","",""
"","null","image-keyboard-response","147","2.0.0","297236","pxgoxfozkk5","badger","no","null","stimuli/organized/EXEMPLAR/USED/Ebread2.jpg","","","","","memory","false","exemplar","true","","",""
"","null","html-keyboard-response","148","2.0.0","298238","pxgoxfozkk5","badger","no","null","<div style=""font-size:60px; color:black;"">+</div>","","","","","","","","","","",""
"","null","image-keyboard-response","149","2.0.0","301241","pxgoxfozkk5","badger","no","null","stimuli/organized/STATE/USED/Sscanner1.JPG","","","","","memory","false","state","true","","",""
"","null","html-keyboard-response","150","2.0.0","302243","pxgoxfozkk5","badger","no","null","<div style=""font-size:60px; color:black;"">+</div>","","","","","","","","","","",""
"","null","image-keyboard-response","151","2.0.0","305247","pxgoxfozkk5","badger","no","null","stimuli/organized/Novel pairs (tested)/n13ablueberries.jpg","","","","","memory","false","novel","true","","",""
"","null","html-keyboard-response","152","2.0.0","306248","pxgoxfozkk5","badger","no","null","<div style=""font-size:60px; color:black;"">+</div>","","","","","","","","","","",""
"","null","image-keyboard-response","153","2.0.0","309251","pxgoxfozkk5","badger","no","null","stimuli/organized/Novel pairs (tested)/n20bshelf.jpg","","","","","memory","false","novel","true","","",""
"","null","html-keyboard-response","154","2.0.0","310254","pxgoxfozkk5","badger","no","null","<div style=""font-size:60px; color:black;"">+</div>","","","","","","","","","","",""
"","null","image-keyboard-response","155","2.0.0","313257","pxgoxfozkk5","badger","no","null","stimuli/organized/EXEMPLAR/USED/Echisel2.jpg","","","","","memory","false","exemplar","true","","",""
"","null","html-keyboard-response","156","2.0.0","314260","pxgoxfozkk5","badger","no","null","<div style=""font-size:60px; color:black;"">+</div>","","","","","","","","","","",""
"","null","image-keyboard-response","157","2.0.0","317262","pxgoxfozkk5","badger","no","null","stimuli/organized/EXEMPLAR/USED/Ebell1.jpg","","","","","memory","false","exemplar","true","","",""
"","null","html-keyboard-response","158","2.0.0","318264","pxgoxfozkk5","badger","no","null","<div style=""font-size:60px; color:black;"">+</div>","","","","","","","","","","",""
"","null","image-keyboard-response","159","2.0.0","321266","pxgoxfozkk5","badger","no","null","stimuli/organized/EXEMPLAR/USED/Efan1.jpg","","","","","memory","false","exemplar","true","","",""
"","null","html-keyboard-response","160","2.0.0","322269","pxgoxfozkk5","badger","no","null","<div style=""font-size:60px; color:black;"">+</div>","","","","","","","","","","",""
"","null","image-keyboard-response","161","2.0.0","325272","pxgoxfozkk5","badger","no","null","stimuli/organized/EXEMPLAR/USED/Eframe2.jpg","","","","","memory","false","exemplar","true","","",""
"","null","html-keyboard-response","162","2.0.0","326274","pxgoxfozkk5","badger","no","null","<div style=""font-size:60px; color:black;"">+</div>","","","","","","","","","","",""
"","null","image-keyboard-response","163","2.0.0","329277","pxgoxfozkk5","badger","no","null","stimuli/organized/Novel pairs (tested)/n05bcactus.jpg","","","","","memory","false","novel","true","","",""
"","null","html-keyboard-response","164","2.0.0","330279","pxgoxfozkk5","badger","no","null","<div style=""font-size:60px; color:black;"">+</div>","","","","","","","","","","",""
"","null","image-keyboard-response","165","2.0.0","333282","pxgoxfozkk5","badger","no","null","stimuli/organized/STATE/USED/Sbriefcase2.jpg","","","","","memory","false","state","true","","",""
"","5465","html-button-response","166","2.0.0","338749","pxgoxfozkk5","badger","no","0","<p>You have completed the study phase.</p><p>Take a short break. Press the button below when you are ready to continue.</p>","","","","","","","","","","",""
"","4454","html-keyboard-response","167","2.0.0","343204","pxgoxfozkk5","badger","no"," ","<p>You will now be shown pairs of images.</p><p>Select the image you remember seeing during the study phase.</p><p>Focus on accuracy, not speed.</p><p>Press any key to begin.</p>","","","","","","","","","","",""
"","3702","html-button-response","168","2.0.0","346908","pxgoxfozkk5","badger","no","0","Which of these items did you see earlier?","","","","","test","","state","true","stimuli/organized/STATE/USED/Sdishes1.JPG","stimuli/organized/STATE/USED/Sdishes2.JPG","0"
"","1508","html-button-response","169","2.0.0","348417","pxgoxfozkk5","badger","no","1","Which of these items did you see earlier?","","","","","test","","state","true","stimuli/organized/STATE/USED/Shairbrush1.jpg","stimuli/organized/STATE/USED/Shairbrush2.jpg","1"
"","935","html-button-response","170","2.0.0","349353","pxgoxfozkk5","badger","no","0","Which of these items did you see earlier?","","","","","test","","novel","true","stimuli/organized/Novel pairs (tested)/n07apotato.jpg","stimuli/organized/Novel pairs (tested)/n07bswimmingpool.jpg","0"
"","1940","html-button-response","171","2.0.0","351294","pxgoxfozkk5","badger","no","0","Which of these items did you see earlier?","","","","","test","","novel","true","stimuli/organized/Novel pairs (tested)/n02aaxe.jpg","stimuli/organized/Novel pairs (tested)/n02bsafetypin.jpg","0"
"","1680","html-button-response","172","2.0.0","352974","pxgoxfozkk5","badger","no","1","Which of these items did you see earlier?","","","","","test","","state","true","stimuli/organized/STATE/USED/Slaptop1.JPG","stimuli/organized/STATE/USED/Slaptop2.JPG","1"
"","3297","html-button-response","173","2.0.0","356273","pxgoxfozkk5","badger","no","1","Which of these items did you see earlier?","","","","","test","","exemplar","false","stimuli/organized/EXEMPLAR/USED/Egrapes1.jpg","stimuli/organized/EXEMPLAR/USED/Egrapes2.jpg","0"
"","4627","html-button-response","174","2.0.0","360901","pxgoxfozkk5","badger","no","1","Which of these items did you see earlier?","","","","","test","","state","true","stimuli/organized/STATE/USED/Sbottles2.JPG","stimuli/organized/STATE/USED/Sbottles1.JPG","1"
"","1725","html-button-response","175","2.0.0","362627","pxgoxfozkk5","badger","no","1","Which of these items did you see earlier?","","","","","test","","state","true","stimuli/organized/STATE/USED/Sapplesgreenbasket2.jpg","stimuli/organized/STATE/USED/Sapplesgreenbasket1.jpg","1"
"","1390","html-button-response","176","2.0.0","364019","pxgoxfozkk5","badger","no","0","Which of these items did you see earlier?","","","","","test","","novel","true","stimuli/organized/Novel pairs (tested)/n20bshelf.jpg","stimuli/organized/Novel pairs (tested)/n20acarseat.jpg","0"
"","1778","html-button-response","177","2.0.0","365798","pxgoxfozkk5","badger","no","0","Which of these items did you see earlier?","","","","","test","","exemplar","true","stimuli/organized/EXEMPLAR/USED/Ecamera1.jpg","stimuli/organized/EXEMPLAR/USED/Ecamera2.jpg","0"
"","2923","html-button-response","178","2.0.0","368722","pxgoxfozkk5","badger","no","0","Which of these items did you see earlier?","","","","","test","","state","true","stimuli/organized/STATE/USED/Sjuiceglass1.JPG","stimuli/organized/STATE/USED/Sjuiceglass2.JPG","0"
"","1062","html-button-response","179","2.0.0","369785","pxgoxfozkk5","badger","no","1","Which of these items did you see earlier?","","","","","test","","novel","true","stimuli/organized/Novel pairs (tested)/n19apickle.jpg","stimuli/organized/Novel pairs (tested)/n19bhairbrush.jpg","1"
"","1517","html-button-response","180","2.0.0","371303","pxgoxfozkk5","badger","no","0","Which of these items did you see earlier?","","","","","test","","exemplar","true","stimuli/organized/EXEMPLAR/USED/Egoggles2.jpg","stimuli/organized/EXEMPLAR/USED/Egoggles1.jpg","0"
"","3020","html-button-response","181","2.0.0","374324","pxgoxfozkk5","badger","no","1","Which of these items did you see earlier?","","","","","test","","exemplar","true","stimuli/organized/EXEMPLAR/USED/Ebell1.jpg","stimuli/organized/EXEMPLAR/USED/Ebell2.jpg","1"
"","2607","html-button-response","182","2.0.0","376932","pxgoxfozkk5","badger","no","0","Which of these items did you see earlier?","","","","","test","","state","false","stimuli/organized/STATE/USED/Scoffeemaker1.JPG","stimuli/organized/STATE/USED/Scoffeemaker2.JPG","1"
"","2622","html-button-response","183","2.0.0","379555","pxgoxfozkk5","badger","no","1","Which of these items did you see earlier?","","","","","test","","state","true","stimuli/organized/STATE/USED/Sdie1.jpg","stimuli/organized/STATE/USED/Sdie2.jpg","1"
"","5099","html-button-response","184","2.0.0","384655","pxgoxfozkk5","badger","no","1","Which of these items did you see earlier?","","","","","test","","state","false","stimuli/organized/STATE/USED/Sdryer2.jpg","stimuli/organized/STATE/USED/Sdryer1.jpg","0"
"","1753","html-button-response","185","2.0.0","386409","pxgoxfozkk5","badger","no","0","Which of these items did you see earlier?","","","","","test","","state","false","stimuli/organized/STATE/USED/Sbox2.jpg","stimuli/organized/STATE/USED/Sbox1.jpg","1"
"","2045","html-button-response","186","2.0.0","388454","pxgoxfozkk5","badger","no","0","Which of these items did you see earlier?","","","","","test","","exemplar","true","stimuli/organized/EXEMPLAR/USED/Ecabinet1.jpg","stimuli/organized/EXEMPLAR/USED/Ecabinet2.jpg","0"
"","975","html-button-response","187","2.0.0","389430","pxgoxfozkk5","badger","no","1","Which of these items did you see earlier?","","","","","test","","novel","true","stimuli/organized/Novel pairs (tested)/n06blipstick.jpg","stimuli/organized/Novel pairs (tested)/n06acane.jpg","1"
"","1915","html-button-response","188","2.0.0","391346","pxgoxfozkk5","badger","no","0","Which of these items did you see earlier?","","","","","test","","state","true","stimuli/organized/STATE/USED/Sflask2.jpg","stimuli/organized/STATE/USED/Sflask1.jpg","0"
"","2616","html-button-response","189","2.0.0","393962","pxgoxfozkk5","badger","no","1","Which of these items did you see earlier?","","","","","test","","state","true","stimuli/organized/STATE/USED/Sbureau2.JPG","stimuli/organized/STATE/USED/Sbureau1.JPG","1"
"","1613","html-button-response","190","2.0.0","395576","pxgoxfozkk5","badger","no","1","Which of these items did you see earlier?","","","","","test","","state","true","stimuli/organized/STATE/USED/Sgiftbag1.jpg","stimuli/organized/STATE/USED/Sgiftbag2.jpg","1"
"","2623","html-button-response","191","2.0.0","398200","pxgoxfozkk5","badger","no","1","Which of these items did you see earlier?","","","","","test","","novel","true","stimuli/organized/Novel pairs (tested)/n01aladybug.jpg","stimuli/organized/Novel pairs (tested)/n01bcoin.jpg","1"
"","6941","html-button-response","192","2.0.0","405142","pxgoxfozkk5","badger","no","1","Which of these items did you see earlier?","","","","","test","","state","false","stimuli/organized/STATE/USED/Sbreadbox2.JPG","stimuli/organized/STATE/USED/Sbreadbox1.JPG","0"
"","1915","html-button-response","193","2.0.0","407058","pxgoxfozkk5","badger","no","1","Which of these items did you see earlier?","","","","","test","","exemplar","true","stimuli/organized/EXEMPLAR/USED/Edispenser2.jpg","stimuli/organized/EXEMPLAR/USED/Edispenser1.jpg","1"
"","1397","html-button-response","194","2.0.0","408456","pxgoxfozkk5","badger","no","1","Which of these items did you see earlier?","","","","","test","","state","true","stimuli/organized/STATE/USED/Spie2.JPG","stimuli/organized/STATE/USED/Spie1.JPG","1"
"","1972","html-button-response","195","2.0.0","410429","pxgoxfozkk5","badger","no","1","Which of these items did you see earlier?","","","","","test","","exemplar","false","stimuli/organized/EXEMPLAR/USED/Ebasket1.jpg","stimuli/organized/EXEMPLAR/USED/Ebasket2.jpg","0"
"","1444","html-button-response","196","2.0.0","411874","pxgoxfozkk5","badger","no","0","Which of these items did you see earlier?","","","","","test","","state","true","stimuli/organized/STATE/USED/Sscissors1.JPG","stimuli/organized/STATE/USED/Sscissors2.JPG","0"
"","2135","html-button-response","197","2.0.0","414010","pxgoxfozkk5","badger","no","1","Which of these items did you see earlier?","","","","","test","","exemplar","false","stimuli/organized/EXEMPLAR/USED/Efan1.jpg","stimuli/organized/EXEMPLAR/USED/Efan2.jpg","0"
"","1340","html-button-response","198","2.0.0","415350","pxgoxfozkk5","badger","no","1","Which of these items did you see earlier?","","","","","test","","exemplar","true","stimuli/organized/EXEMPLAR/USED/Egame1.jpg","stimuli/organized/EXEMPLAR/USED/Egame2.jpg","1"
"","2265","html-button-response","199","2.0.0","417616","pxgoxfozkk5","badger","no","1","Which of these items did you see earlier?","","","","","test","","state","true","stimuli/organized/STATE/USED/Sdrum1.jpg","stimuli/organized/STATE/USED/Sdrum2.jpg","1"
"","2809","html-button-response","200","2.0.0","420425","pxgoxfozkk5","badger","no","0","Which of these items did you see earlier?","","","","","test","","state","true","stimuli/organized/STATE/USED/Schinesefoodbox1.jpg","stimuli/organized/STATE/USED/Schinesefoodbox2.jpg","0"
"","2184","html-button-response","201","2.0.0","422610","pxgoxfozkk5","badger","no","1","Which of these items did you see earlier?","","","","","test","","exemplar","true","stimuli/organized/EXEMPLAR/USED/Econe2.jpg","stimuli/organized/EXEMPLAR/USED/Econe1.jpg","1"
"","2907","html-button-response","202","2.0.0","425518","pxgoxfozkk5","badger","no","0","Which of these items did you see earlier?","","","","","test","","novel","true","stimuli/organized/Novel pairs (tested)/n10bturkey.jpg","stimuli/organized/Novel pairs (tested)/n10awindmill.jpg","0"
"","1169","html-button-response","203","2.0.0","426688","pxgoxfozkk5","badger","no","0","Which of these items did you see earlier?","","","","","test","","exemplar","true","stimuli/organized/EXEMPLAR/USED/Echocolatebar2.jpg","stimuli/organized/EXEMPLAR/USED/Echocolatebar1.jpg","0"
"","995","html-button-response","204","2.0.0","427684","pxgoxfozkk5","badger","no","1","Which of these items did you see earlier?","","","","","test","","novel","true","stimuli/organized/Novel pairs (tested)/n15bfootball.jpg","stimuli/organized/Novel pairs (tested)/n15aspiderweb.jpg","1"
"","1325","html-button-response","205","2.0.0","429010","pxgoxfozkk5","badger","no","1","Which of these items did you see earlier?","","","","","test","","novel","true","stimuli/organized/Novel pairs (tested)/n17bweddingdress.jpg","stimuli/organized/Novel pairs (tested)/n17avendingmachine.jpg","1"
"","3425","html-button-response","206","2.0.0","432435","pxgoxfozkk5","badger","no","1","Which of these items did you see earlier?","","","","","test","","state","true","stimuli/organized/STATE/USED/Sscanner1.JPG","stimuli/organized/STATE/USED/Sscanner2.JPG","1"
"","3233","html-button-response","207","2.0.0","435670","pxgoxfozkk5","badger","no","1","Which of these items did you see earlier?","","","","","test","","novel","true","stimuli/organized/Novel pairs (tested)/n16abananas.jpg","stimuli/organized/Novel pairs (tested)/n16bhammer.jpg","1"
"","3106","html-button-response","208","2.0.0","438777","pxgoxfozkk5","badger","no","0","Which of these items did you see earlier?","","","","","test","","state","true","stimuli/organized/STATE/USED/Sfiretrucktoy2.jpg","stimuli/organized/STATE/USED/Sfiretrucktoy1.jpg","0"
"","2436","html-button-response","209","2.0.0","441213","pxgoxfozkk5","badger","no","0","Which of these items did you see earlier?","","","","","test","","exemplar","true","stimuli/organized/EXEMPLAR/USED/Ebracelet1.jpg","stimuli/organized/EXEMPLAR/USED/Ebracelet2.jpg","0"
"","2866","html-button-response","210","2.0.0","444080","pxgoxfozkk5","badger","no","1","Which of these items did you see earlier?","","","","","test","","state","true","stimuli/organized/STATE/USED/Sbabytoy2.JPG","stimuli/organized/STATE/USED/Sbabytoy1.JPG","1"
"","2898","html-button-response","211","2.0.0","446979","pxgoxfozkk5","badger","no","1","Which of these items did you see earlier?","","","","","test","","novel","false","stimuli/organized/Novel pairs (tested)/n05bcactus.jpg","stimuli/organized/Novel pairs (tested)/n05abarrel.jpg","0"
"","1501","html-button-response","212","2.0.0","448481","pxgoxfozkk5","badger","no","0","Which of these items did you see earlier?","","","","","test","","state","true","stimuli/organized/STATE/USED/Spotpan2.JPG","stimuli/organized/STATE/USED/Spotpan1.JPG","0"
"","1160","html-button-response","213","2.0.0","449641","pxgoxfozkk5","badger","no","1","Which of these items did you see earlier?","","","","","test","","exemplar","true","stimuli/organized/EXEMPLAR/USED/Ebread2.jpg","stimuli/organized/EXEMPLAR/USED/Ebread1.jpg","1"
"","1066","html-button-response","214","2.0.0","450707","pxgoxfozkk5","badger","no","0","Which of these items did you see earlier?","","","","","test","","novel","true","stimuli/organized/Novel pairs (tested)/n14bgolfball.jpg","stimuli/organized/Novel pairs (tested)/n14acigarette.jpg","0"
"","1418","html-button-response","215","2.0.0","452127","pxgoxfozkk5","badger","no","0","Which of these items did you see earlier?","","","","","test","","novel","true","stimuli/organized/Novel pairs (tested)/n04bbandaid.jpg","stimuli/organized/Novel pairs (tested)/n04ayarn.jpg","0"
"","3953","html-button-response","216","2.0.0","456081","pxgoxfozkk5","badger","no","0","Which of these items did you see earlier?","","","","","test","","exemplar","true","stimuli/organized/EXEMPLAR/USED/Echisel2.jpg","stimuli/organized/EXEMPLAR/USED/Echisel1.jpg","0"
"","2029","html-button-response","217","2.0.0","458110","pxgoxfozkk5","badger","no","1","Which of these items did you see earlier?","","","","","test","","novel","true","stimuli/organized/Novel pairs (tested)/n03acamel.jpg","stimuli/organized/Novel pairs (tested)/n03bbagel.jpg","1"
"","1381","html-button-response","218","2.0.0","459492","pxgoxfozkk5","badger","no","1","Which of these items did you see earlier?","","","","","test","","novel","true","stimuli/organized/Novel pairs (tested)/n13ablueberries.jpg","stimuli/organized/Novel pairs (tested)/n13bdustpan.jpg","1"
"","2516","html-button-response","219","2.0.0","462008","pxgoxfozkk5","badger","no","0","Which of these items did you see earlier?","","","","","test","","state","true","stimuli/organized/STATE/USED/Sbooks2.JPG","stimuli/organized/STATE/USED/Sbooks1.JPG","0"
"","1389","html-button-response","220","2.0.0","463398","pxgoxfozkk5","badger","no","0","Which of these items did you see earlier?","","","","","test","","novel","true","stimuli/organized/Novel pairs (tested)/n18apretzel.jpg","stimuli/organized/Novel pairs (tested)/n18bsnail.jpg","0"
"","1290","html-button-response","221","2.0.0","464689","pxgoxfozkk5","badger","no","1","Which of these items did you see earlier?","","","","","test","","state","true","stimuli/organized/STATE/USED/Sdresser2.jpg","stimuli/organized/STATE/USED/Sdresser1.jpg","1"
"","3174","html-button-response","222","2.0.0","467864","pxgoxfozkk5","badger","no","0","Which of these items did you see earlier?","","","","","test","","state","false","stimuli/organized/STATE/USED/Scookies2.JPG","stimuli/organized/STATE/USED/Scookies1.JPG","1"
"","2184","html-button-response","223","2.0.0","470049","pxgoxfozkk5","badger","no","1","Which of these items did you see earlier?","","","","","test","","state","true","stimuli/organized/STATE/USED/Seggs1.jpg","stimuli/organized/STATE/USED/Seggs2.jpg","1"
"","1574","html-button-response","224","2.0.0","471623","pxgoxfozkk5","badger","no","1","Which of these items did you see earlier?","","","","","test","","state","true","stimuli/organized/STATE/USED/Sdonut1.jpg","stimuli/organized/STATE/USED/Sdonut2.jpg","1"
"","2022","html-button-response","225","2.0.0","473646","pxgoxfozkk5","badger","no","0","Which of these items did you see earlier?","","","","","test","","novel","true","stimuli/organized/Novel pairs (tested)/n08aoven.jpg","stimuli/organized/Novel pairs (tested)/n08bpaperclip.jpg","0"
"","4257","html-button-response","226","2.0.0","477904","pxgoxfozkk5","badger","no","1","Which of these items did you see earlier?","","","","","test","","state","true","stimuli/organized/STATE/USED/Sgrinder1.jpg","stimuli/organized/STATE/USED/Sgrinder2.jpg","1"
"","2890","html-button-response","227","2.0.0","480795","pxgoxfozkk5","badger","no","1","Which of these items did you see earlier?","","","","","test","","exemplar","true","stimuli/organized/EXEMPLAR/USED/Eframe2.jpg","stimuli/organized/EXEMPLAR/USED/Eframe1.jpg","1"
"","3662","html-button-response","228","2.0.0","484458","pxgoxfozkk5","badger","no","1","Which of these items did you see earlier?","","","","","test","","state","false","stimuli/organized/STATE/USED/Sbriefcase2.jpg","stimuli/organized/STATE/USED/Sbriefcase1.jpg","0"
"","1412","html-button-response","229","2.0.0","485870","pxgoxfozkk5","badger","no","0","Which of these items did you see earlier?","","","","","test","","state","true","stimuli/organized/STATE/USED/Sgiftbox1.jpg","stimuli/organized/STATE/USED/Sgiftbox2.jpg","0"
"","3029","html-button-response","230","2.0.0","488900","pxgoxfozkk5","badger","no","1","Which of these items did you see earlier?","","","","","test","","state","true","stimuli/organized/STATE/USED/Scrayons2.jpg","stimuli/organized/STATE/USED/Scrayons1.jpg","1"
"","2094","html-button-response","231","2.0.0","490996","pxgoxfozkk5","badger","no","1","Which of these items did you see earlier?","","","","","test","","novel","true","stimuli/organized/Novel pairs (tested)/n11abatteries.jpg","stimuli/organized/Novel pairs (tested)/n11bsock.jpg","1"
"","1087","html-button-response","232","2.0.0","492084","pxgoxfozkk5","badger","no","0","Which of these items did you see earlier?","","","","","test","","exemplar","true","stimuli/organized/EXEMPLAR/USED/Ebicycle2.jpg","stimuli/organized/EXEMPLAR/USED/Ebicycle1.jpg","0"
"","1071","html-button-response","233","2.0.0","493156","pxgoxfozkk5","badger","no","1","Which of these items did you see earlier?","","","","","test","","novel","true","stimuli/organized/Novel pairs (tested)/n12atelescope.jpg","stimuli/organized/Novel pairs (tested)/n12bwatch.jpg","1"
"","4051","html-button-response","234","2.0.0","497208","pxgoxfozkk5","badger","no","0","Which of these items did you see earlier?","","","","","test","","state","false","stimuli/organized/STATE/USED/Scontainer1.JPG","stimuli/organized/STATE/USED/Scontainer2.JPG","1"
"","2637","html-button-response","235","2.0.0","499847","pxgoxfozkk5","badger","no","0","Which of these items did you see earlier?","","","","","test","","state","false","stimuli/organized/STATE/USED/Sbrushes2.jpg","stimuli/organized/STATE/USED/Sbrushes1.jpg","1"
"","2469","html-button-response","236","2.0.0","502317","pxgoxfozkk5","badger","no","1","Which of these items did you see earlier?","","","","","test","","exemplar","false","stimuli/organized/EXEMPLAR/USED/Ecalculator2.jpg","stimuli/organized/EXEMPLAR/USED/Ecalculator1.jpg","0"
"","1378","html-button-response","237","2.0.0","503696","pxgoxfozkk5","badger","no","0","Which of these items did you see earlier?","","","","","test","","state","true","stimuli/organized/STATE/USED/Sbelt1.jpg","stimuli/organized/STATE/USED/Sbelt2.jpg","0"
"","1973","html-button-response","238","2.0.0","505670","pxgoxfozkk5","badger","no","0","Which of these items did you see earlier?","","","","","test","","exemplar","true","stimuli/organized/EXEMPLAR/USED/Efeather1.jpg","stimuli/organized/EXEMPLAR/USED/Efeather2.jpg","0"
"","1858","html-button-response","239","2.0.0","507529","pxgoxfozkk5","badger","no","0","Which of these items did you see earlier?","","","","","test","","state","true","stimuli/organized/STATE/USED/Sabacus2.jpg","stimuli/organized/STATE/USED/Sabacus1.jpg","0"
"","1453","html-button-response","240","2.0.0","508982","pxgoxfozkk5","badger","no","0","Which of these items did you see earlier?","","","","","test","","state","true","stimuli/organized/STATE/USED/Sphone1.JPG","stimuli/organized/STATE/USED/Sphone2.JPG","0"
"","2777","html-button-response","241","2.0.0","511760","pxgoxfozkk5","badger","no","0","Which of these items did you see earlier?","","","","","test","","exemplar","true","stimuli/organized/EXEMPLAR/USED/Ecar2.jpg","stimuli/organized/EXEMPLAR/USED/Ecar1.jpg","0"
"","2558","html-button-response","242","2.0.0","514319","pxgoxfozkk5","badger","no","0","Which of these items did you see earlier?","","","","","test","","exemplar","false","stimuli/organized/EXEMPLAR/USED/Eglobe2.jpg","stimuli/organized/EXEMPLAR/USED/Eglobe1.jpg","1"
"","1200","html-button-response","243","2.0.0","515520","pxgoxfozkk5","badger","no","1","Which of these items did you see earlier?","","","","","test","","novel","true","stimuli/organized/Novel pairs (tested)/n09bsaddle.jpg","stimuli/organized/Novel pairs (tested)/n09apenguin.jpg","1"
"","9823","survey-html-form","244","2.0.0","525345","pxgoxfozkk5","badger","no","{""age"":""21"",""gender"":""female"",""memory_experiment_experience"":""yes""}","","","","","","","","","","","",""
"","33806","survey-text","245","2.0.0","559152","pxgoxfozkk5","badger","no","{""task_guess"":""The experiment was about whether aspects like recency, similarity, order, and repetition affect our memory of visual images""}","","","","","","","","","","","",""
"","2133","survey-text","246","2.0.0","561287","pxgoxfozkk5","badger","no","{""technical_issues_question"":""no""}","","","","","","","","","","","",""
