"success","rt","trial_type","trial_index","plugin_version","time_elapsed","random_id","participant","technical_issues","response","stimulus","timeout","failed_images","failed_audio","failed_video","trial_phase","is_repeat","test_type","correct","old_image","new_image","correct_position"
"true","4486","fullscreen","0","null","5489","pzt0km4nlsl","lion","no","","","","","","","","","","","","",""
"","3282","survey-text","1","2.0.0","8773","pzt0km4nlsl","lion","no","{""participant_id"":""lion""}","","","","","","","","","","","",""
"","11918","html-keyboard-response","2","2.0.0","20691","pzt0km4nlsl","lion","no"," ","
      <p>In this experiment, a series of objects will be displayed.</p>
      <p>Try to memorize as much as possible about the objects.</p>
      <p>If the image is a <strong> repeat</strong>, press the SPACEBAR.</p>
      <p>Press any key to begin.</p>
    ","","","","","","","","","","",""
"true","","preload","3","2.0.0","21224","pzt0km4nlsl","lion","no","","","false","[]","[]","[]","","","","","","",""
"","null","html-keyboard-response","4","2.0.0","22226","pzt0km4nlsl","lion","no","null","<div style=""font-size:60px;"">+</div>","","","","","","","","","","",""
"","null","image-keyboard-response","5","2.0.0","25230","pzt0km4nlsl","lion","no","null","stimuli/organized/STATE/USED/Sbox1.jpg","","","","","memory","false","state","true","","",""
"","null","html-keyboard-response","6","2.0.0","26231","pzt0km4nlsl","lion","no","null","<div style=""font-size:60px; color:black;"">+</div>","","","","","","","","","","",""
"","null","image-keyboard-response","7","2.0.0","29234","pzt0km4nlsl","lion","no","null","stimuli/organized/STATE/USED/Sdrum2.jpg","","","","","memory","false","state","true","","",""
"","null","html-keyboard-response","8","2.0.0","30235","pzt0km4nlsl","lion","no","null","<div style=""font-size:60px; color:black;"">+</div>","","","","","","","","","","",""
"","null","image-keyboard-response","9","2.0.0","33237","pzt0km4nlsl","lion","no","null","stimuli/organized/STATE/USED/Seggs1.jpg","","","","","memory","false","state","true","","",""
"","null","html-keyboard-response","10","2.0.0","34239","pzt0km4nlsl","lion","no","null","<div style=""font-size:60px; color:black;"">+</div>","","","","","","","","","","",""
"","null","image-keyboard-response","11","2.0.0","37242","pzt0km4nlsl","lion","no","null","stimuli/organized/STATE/USED/Sbabytoy2.JPG","","","","","memory","false","state","true","","",""
"","null","html-keyboard-response","12","2.0.0","38244","pzt0km4nlsl","lion","no","null","<div style=""font-size:60px; color:black;"">+</div>","","","","","","","","","","",""
"","null","image-keyboard-response","13","2.0.0","41247","pzt0km4nlsl","lion","no","null","stimuli/organized/Novel pairs (tested)/n19bhairbrush.jpg","","","","","memory","false","novel","true","","",""
"","null","html-keyboard-response","14","2.0.0","42249","pzt0km4nlsl","lion","no","null","<div style=""font-size:60px; color:black;"">+</div>","","","","","","","","","","",""
"","null","image-keyboard-response","15","2.0.0","45252","pzt0km4nlsl","lion","no","null","stimuli/organized/STATE/USED/Sbottles2.JPG","","","","","memory","false","state","true","","",""
"","null","html-keyboard-response","16","2.0.0","46254","pzt0km4nlsl","lion","no","null","<div style=""font-size:60px; color:black;"">+</div>","","","","","","","","","","",""
"","null","image-keyboard-response","17","2.0.0","49257","pzt0km4nlsl","lion","no","null","stimuli/organized/Novel pairs (tested)/n04bbandaid.jpg","","","","","memory","false","novel","true","","",""
"","null","html-keyboard-response","18","2.0.0","50260","pzt0km4nlsl","lion","no","null","<div style=""font-size:60px; color:black;"">+</div>","","","","","","","","","","",""
"","null","image-keyboard-response","19","2.0.0","53263","pzt0km4nlsl","lion","no","null","stimuli/organized/EXEMPLAR/USED/Ebread2.jpg","","","","","memory","false","exemplar","true","","",""
"","null","html-keyboard-response","20","2.0.0","54265","pzt0km4nlsl","lion","no","null","<div style=""font-size:60px; color:black;"">+</div>","","","","","","","","","","",""
"","null","image-keyboard-response","21","2.0.0","57267","pzt0km4nlsl","lion","no","null","stimuli/organized/STATE/USED/Schinesefoodbox1.jpg","","","","","memory","false","state","true","","",""
"","null","html-keyboard-response","22","2.0.0","58268","pzt0km4nlsl","lion","no","null","<div style=""font-size:60px; color:black;"">+</div>","","","","","","","","","","",""
"","null","image-keyboard-response","23","2.0.0","61271","pzt0km4nlsl","lion","no","null","stimuli/organized/STATE/USED/Sbriefcase1.jpg","","","","","memory","false","state","true","","",""
"","null","html-keyboard-response","24","2.0.0","62273","pzt0km4nlsl","lion","no","null","<div style=""font-size:60px; color:black;"">+</div>","","","","","","","","","","",""
"","null","image-keyboard-response","25","2.0.0","65276","pzt0km4nlsl","lion","no","null","stimuli/organized/Novel pairs (tested)/n05abarrel.jpg","","","","","memory","false","novel","true","","",""
"","null","html-keyboard-response","26","2.0.0","66278","pzt0km4nlsl","lion","no","null","<div style=""font-size:60px; color:black;"">+</div>","","","","","","","","","","",""
"","null","image-keyboard-response","27","2.0.0","69280","pzt0km4nlsl","lion","no","null","stimuli/organized/STATE/USED/Sdresser2.jpg","","","","","memory","false","state","true","","",""
"","null","html-keyboard-response","28","2.0.0","70282","pzt0km4nlsl","lion","no","null","<div style=""font-size:60px; color:black;"">+</div>","","","","","","","","","","",""
"","null","image-keyboard-response","29","2.0.0","73285","pzt0km4nlsl","lion","no","null","stimuli/organized/EXEMPLAR/USED/Egoggles1.jpg","","","","","memory","false","exemplar","true","","",""
"","null","html-keyboard-response","30","2.0.0","74287","pzt0km4nlsl","lion","no","null","<div style=""font-size:60px; color:black;"">+</div>","","","","","","","","","","",""
"","null","image-keyboard-response","31","2.0.0","77290","pzt0km4nlsl","lion","no","null","stimuli/organized/Novel pairs (tested)/n02bsafetypin.jpg","","","","","memory","false","novel","true","","",""
"","null","html-keyboard-response","32","2.0.0","78292","pzt0km4nlsl","lion","no","null","<div style=""font-size:60px; color:black;"">+</div>","","","","","","","","","","",""
"","null","image-keyboard-response","33","2.0.0","81295","pzt0km4nlsl","lion","no","null","stimuli/organized/STATE/USED/Scontainer2.JPG","","","","","memory","false","state","true","","",""
"","null","html-keyboard-response","34","2.0.0","82297","pzt0km4nlsl","lion","no","null","<div style=""font-size:60px; color:black;"">+</div>","","","","","","","","","","",""
"","null","image-keyboard-response","35","2.0.0","85300","pzt0km4nlsl","lion","no","null","stimuli/organized/EXEMPLAR/USED/Echisel2.jpg","","","","","memory","false","exemplar","true","","",""
"","null","html-keyboard-response","36","2.0.0","86302","pzt0km4nlsl","lion","no","null","<div style=""font-size:60px; color:black;"">+</div>","","","","","","","","","","",""
"","null","image-keyboard-response","37","2.0.0","89305","pzt0km4nlsl","lion","no","null","stimuli/organized/STATE/USED/Shairbrush1.jpg","","","","","memory","false","state","true","","",""
"","null","html-keyboard-response","38","2.0.0","90306","pzt0km4nlsl","lion","no","null","<div style=""font-size:60px; color:black;"">+</div>","","","","","","","","","","",""
"","null","image-keyboard-response","39","2.0.0","93309","pzt0km4nlsl","lion","no","null","stimuli/organized/STATE/USED/Sflask2.jpg","","","","","memory","false","state","true","","",""
"","null","html-keyboard-response","40","2.0.0","94311","pzt0km4nlsl","lion","no","null","<div style=""font-size:60px; color:black;"">+</div>","","","","","","","","","","",""
"","null","image-keyboard-response","41","2.0.0","97313","pzt0km4nlsl","lion","no","null","stimuli/organized/STATE/USED/Sbureau1.JPG","","","","","memory","false","state","true","","",""
"","null","html-keyboard-response","42","2.0.0","98316","pzt0km4nlsl","lion","no","null","<div style=""font-size:60px; color:black;"">+</div>","","","","","","","","","","",""
"","null","image-keyboard-response","43","2.0.0","101318","pzt0km4nlsl","lion","no","null","stimuli/organized/Novel pairs (tested)/n08bpaperclip.jpg","","","","","memory","false","novel","true","","",""
"","null","html-keyboard-response","44","2.0.0","102320","pzt0km4nlsl","lion","no","null","<div style=""font-size:60px; color:black;"">+</div>","","","","","","","","","","",""
"","null","image-keyboard-response","45","2.0.0","105323","pzt0km4nlsl","lion","no","null","stimuli/organized/STATE/USED/Spotpan2.JPG","","","","","memory","false","state","true","","",""
"","null","html-keyboard-response","46","2.0.0","106326","pzt0km4nlsl","lion","no","null","<div style=""font-size:60px; color:black;"">+</div>","","","","","","","","","","",""
"","null","image-keyboard-response","47","2.0.0","109329","pzt0km4nlsl","lion","no","null","stimuli/organized/Novel pairs (tested)/n09bsaddle.jpg","","","","","memory","false","novel","true","","",""
"","null","html-keyboard-response","48","2.0.0","110331","pzt0km4nlsl","lion","no","null","<div style=""font-size:60px; color:black;"">+</div>","","","","","","","","","","",""
"","791","image-keyboard-response","49","2.0.0","113332","pzt0km4nlsl","lion","no"," ","stimuli/organized/Novel pairs (tested)/n16bhammer.jpg","","","","","memory","false","novel","false","","",""
"","null","html-keyboard-response","50","2.0.0","114333","pzt0km4nlsl","lion","no","null","<div style=""font-size:60px; color:red;"">+</div>","","","","","","","","","","",""
"","null","image-keyboard-response","51","2.0.0","117334","pzt0km4nlsl","lion","no","null","stimuli/organized/EXEMPLAR/USED/Eframe2.jpg","","","","","memory","false","exemplar","true","","",""
"","null","html-keyboard-response","52","2.0.0","118336","pzt0km4nlsl","lion","no","null","<div style=""font-size:60px; color:black;"">+</div>","","","","","","","","","","",""
"","null","image-keyboard-response","53","2.0.0","121338","pzt0km4nlsl","lion","no","null","stimuli/organized/STATE/USED/Sapplesgreenbasket2.jpg","","","","","memory","false","state","true","","",""
"","null","html-keyboard-response","54","2.0.0","122341","pzt0km4nlsl","lion","no","null","<div style=""font-size:60px; color:black;"">+</div>","","","","","","","","","","",""
"","null","image-keyboard-response","55","2.0.0","125344","pzt0km4nlsl","lion","no","null","stimuli/organized/STATE/USED/Sdishes1.JPG","","","","","memory","false","state","true","","",""
"","null","html-keyboard-response","56","2.0.0","126346","pzt0km4nlsl","lion","no","null","<div style=""font-size:60px; color:black;"">+</div>","","","","","","","","","","",""
"","1800","image-keyboard-response","57","2.0.0","129348","pzt0km4nlsl","lion","no"," ","stimuli/organized/Novel pairs (tested)/n05abarrel.jpg","","","","","memory","true","novel","true","","",""
"","null","html-keyboard-response","58","2.0.0","130349","pzt0km4nlsl","lion","no","null","<div style=""font-size:60px; color:green;"">+</div>","","","","","","","","","","",""
"","null","image-keyboard-response","59","2.0.0","133352","pzt0km4nlsl","lion","no","null","stimuli/organized/EXEMPLAR/USED/Edispenser1.jpg","","","","","memory","false","exemplar","true","","",""
"","null","html-keyboard-response","60","2.0.0","134354","pzt0km4nlsl","lion","no","null","<div style=""font-size:60px; color:black;"">+</div>","","","","","","","","","","",""
"","null","image-keyboard-response","61","2.0.0","137357","pzt0km4nlsl","lion","no","null","stimuli/organized/STATE/USED/Sdie1.jpg","","","","","memory","false","state","true","","",""
"","null","html-keyboard-response","62","2.0.0","138358","pzt0km4nlsl","lion","no","null","<div style=""font-size:60px; color:black;"">+</div>","","","","","","","","","","",""
"","676","image-keyboard-response","63","2.0.0","141361","pzt0km4nlsl","lion","no"," ","stimuli/organized/Novel pairs (tested)/n11abatteries.jpg","","","","","memory","false","novel","false","","",""
"","null","html-keyboard-response","64","2.0.0","142362","pzt0km4nlsl","lion","no","null","<div style=""font-size:60px; color:red;"">+</div>","","","","","","","","","","",""
"","2695","image-keyboard-response","65","2.0.0","145365","pzt0km4nlsl","lion","no"," ","stimuli/organized/STATE/USED/Sbrushes2.jpg","","","","","memory","false","state","false","","",""
"","null","html-keyboard-response","66","2.0.0","146368","pzt0km4nlsl","lion","no","null","<div style=""font-size:60px; color:red;"">+</div>","","","","","","","","","","",""
"","null","image-keyboard-response","67","2.0.0","149370","pzt0km4nlsl","lion","no","null","stimuli/organized/Novel pairs (tested)/n01aladybug.jpg","","","","","memory","false","novel","true","","",""
"","null","html-keyboard-response","68","2.0.0","150373","pzt0km4nlsl","lion","no","null","<div style=""font-size:60px; color:black;"">+</div>","","","","","","","","","","",""
"","2893","image-keyboard-response","69","2.0.0","153374","pzt0km4nlsl","lion","no"," ","stimuli/organized/Novel pairs (tested)/n13bdustpan.jpg","","","","","memory","false","novel","false","","",""
"","null","html-keyboard-response","70","2.0.0","154376","pzt0km4nlsl","lion","no","null","<div style=""font-size:60px; color:red;"">+</div>","","","","","","","","","","",""
"","1834","image-keyboard-response","71","2.0.0","157378","pzt0km4nlsl","lion","no"," ","stimuli/organized/STATE/USED/Sgiftbox1.jpg","","","","","memory","false","state","false","","",""
"","null","html-keyboard-response","72","2.0.0","158381","pzt0km4nlsl","lion","no","null","<div style=""font-size:60px; color:red;"">+</div>","","","","","","","","","","",""
"","null","image-keyboard-response","73","2.0.0","161382","pzt0km4nlsl","lion","no","null","stimuli/organized/STATE/USED/Sabacus2.jpg","","","","","memory","false","state","true","","",""
"","null","html-keyboard-response","74","2.0.0","162384","pzt0km4nlsl","lion","no","null","<div style=""font-size:60px; color:black;"">+</div>","","","","","","","","","","",""
"","null","image-keyboard-response","75","2.0.0","165386","pzt0km4nlsl","lion","no","null","stimuli/organized/EXEMPLAR/USED/Ecamera1.jpg","","","","","memory","false","exemplar","true","","",""
"","null","html-keyboard-response","76","2.0.0","166389","pzt0km4nlsl","lion","no","null","<div style=""font-size:60px; color:black;"">+</div>","","","","","","","","","","",""
"","null","image-keyboard-response","77","2.0.0","169390","pzt0km4nlsl","lion","no","null","stimuli/organized/STATE/USED/Sdonut2.jpg","","","","","memory","false","state","true","","",""
"","null","html-keyboard-response","78","2.0.0","170392","pzt0km4nlsl","lion","no","null","<div style=""font-size:60px; color:black;"">+</div>","","","","","","","","","","",""
"","1722","image-keyboard-response","79","2.0.0","173394","pzt0km4nlsl","lion","no"," ","stimuli/organized/STATE/USED/Scoffeemaker2.JPG","","","","","memory","false","state","false","","",""
"","null","html-keyboard-response","80","2.0.0","174396","pzt0km4nlsl","lion","no","null","<div style=""font-size:60px; color:red;"">+</div>","","","","","","","","","","",""
"","2797","image-keyboard-response","81","2.0.0","177398","pzt0km4nlsl","lion","no"," ","stimuli/organized/STATE/USED/Sscissors2.JPG","","","","","memory","false","state","false","","",""
"","null","html-keyboard-response","82","2.0.0","178400","pzt0km4nlsl","lion","no","null","<div style=""font-size:60px; color:red;"">+</div>","","","","","","","","","","",""
"","null","image-keyboard-response","83","2.0.0","181404","pzt0km4nlsl","lion","no","null","stimuli/organized/Novel pairs (tested)/n10bturkey.jpg","","","","","memory","false","novel","true","","",""
"","null","html-keyboard-response","84","2.0.0","182406","pzt0km4nlsl","lion","no","null","<div style=""font-size:60px; color:black;"">+</div>","","","","","","","","","","",""
"","null","image-keyboard-response","85","2.0.0","185408","pzt0km4nlsl","lion","no","null","stimuli/organized/Novel pairs (tested)/n07bswimmingpool.jpg","","","","","memory","false","novel","true","","",""
"","null","html-keyboard-response","86","2.0.0","186410","pzt0km4nlsl","lion","no","null","<div style=""font-size:60px; color:black;"">+</div>","","","","","","","","","","",""
"","1440","image-keyboard-response","87","2.0.0","189412","pzt0km4nlsl","lion","no"," ","stimuli/organized/Novel pairs (tested)/n03acamel.jpg","","","","","memory","false","novel","false","","",""
"","null","html-keyboard-response","88","2.0.0","190415","pzt0km4nlsl","lion","no","null","<div style=""font-size:60px; color:red;"">+</div>","","","","","","","","","","",""
"","null","image-keyboard-response","89","2.0.0","193417","pzt0km4nlsl","lion","no","null","stimuli/organized/STATE/USED/Sphone1.JPG","","","","","memory","false","state","true","","",""
"","null","html-keyboard-response","90","2.0.0","194419","pzt0km4nlsl","lion","no","null","<div style=""font-size:60px; color:black;"">+</div>","","","","","","","","","","",""
"","null","image-keyboard-response","91","2.0.0","197420","pzt0km4nlsl","lion","no","null","stimuli/organized/Novel pairs (tested)/n17avendingmachine.jpg","","","","","memory","false","novel","true","","",""
"","null","html-keyboard-response","92","2.0.0","198421","pzt0km4nlsl","lion","no","null","<div style=""font-size:60px; color:black;"">+</div>","","","","","","","","","","",""
"","null","image-keyboard-response","93","2.0.0","201424","pzt0km4nlsl","lion","no","null","stimuli/organized/Novel pairs (tested)/n06blipstick.jpg","","","","","memory","false","novel","true","","",""
"","null","html-keyboard-response","94","2.0.0","202426","pzt0km4nlsl","lion","no","null","<div style=""font-size:60px; color:black;"">+</div>","","","","","","","","","","",""
"","null","image-keyboard-response","95","2.0.0","205428","pzt0km4nlsl","lion","no","null","stimuli/organized/STATE/USED/Sscanner1.JPG","","","","","memory","false","state","true","","",""
"","null","html-keyboard-response","96","2.0.0","206430","pzt0km4nlsl","lion","no","null","<div style=""font-size:60px; color:black;"">+</div>","","","","","","","","","","",""
"","null","image-keyboard-response","97","2.0.0","209433","pzt0km4nlsl","lion","no","null","stimuli/organized/STATE/USED/Spie2.JPG","","","","","memory","false","state","true","","",""
"","null","html-keyboard-response","98","2.0.0","210435","pzt0km4nlsl","lion","no","null","<div style=""font-size:60px; color:black;"">+</div>","","","","","","","","","","",""
"","2200","image-keyboard-response","99","2.0.0","213437","pzt0km4nlsl","lion","no"," ","stimuli/organized/EXEMPLAR/USED/Ebicycle1.jpg","","","","","memory","false","exemplar","false","","",""
"","null","html-keyboard-response","100","2.0.0","214440","pzt0km4nlsl","lion","no","null","<div style=""font-size:60px; color:red;"">+</div>","","","","","","","","","","",""
"","1866","image-keyboard-response","101","2.0.0","217443","pzt0km4nlsl","lion","no"," ","stimuli/organized/STATE/USED/Scookies2.JPG","","","","","memory","false","state","false","","",""
"","null","html-keyboard-response","102","2.0.0","218445","pzt0km4nlsl","lion","no","null","<div style=""font-size:60px; color:red;"">+</div>","","","","","","","","","","",""
"","null","image-keyboard-response","103","2.0.0","221447","pzt0km4nlsl","lion","no","null","stimuli/organized/STATE/USED/Sdryer1.jpg","","","","","memory","false","state","true","","",""
"","null","html-keyboard-response","104","2.0.0","222449","pzt0km4nlsl","lion","no","null","<div style=""font-size:60px; color:black;"">+</div>","","","","","","","","","","",""
"","1807","image-keyboard-response","105","2.0.0","225452","pzt0km4nlsl","lion","no"," ","stimuli/organized/EXEMPLAR/USED/Ebell2.jpg","","","","","memory","false","exemplar","false","","",""
"","null","html-keyboard-response","106","2.0.0","226454","pzt0km4nlsl","lion","no","null","<div style=""font-size:60px; color:red;"">+</div>","","","","","","","","","","",""
"","null","image-keyboard-response","107","2.0.0","229456","pzt0km4nlsl","lion","no","null","stimuli/organized/EXEMPLAR/USED/Ecar1.jpg","","","","","memory","false","exemplar","true","","",""
"","null","html-keyboard-response","108","2.0.0","230458","pzt0km4nlsl","lion","no","null","<div style=""font-size:60px; color:black;"">+</div>","","","","","","","","","","",""
"","null","image-keyboard-response","109","2.0.0","233461","pzt0km4nlsl","lion","no","null","stimuli/organized/STATE/USED/Sgiftbag1.jpg","","","","","memory","false","state","true","","",""
"","null","html-keyboard-response","110","2.0.0","234464","pzt0km4nlsl","lion","no","null","<div style=""font-size:60px; color:black;"">+</div>","","","","","","","","","","",""
"","null","image-keyboard-response","111","2.0.0","237466","pzt0km4nlsl","lion","no","null","stimuli/organized/EXEMPLAR/USED/Efeather1.jpg","","","","","memory","false","exemplar","true","","",""
"","null","html-keyboard-response","112","2.0.0","238468","pzt0km4nlsl","lion","no","null","<div style=""font-size:60px; color:black;"">+</div>","","","","","","","","","","",""
"","2062","image-keyboard-response","113","2.0.0","241471","pzt0km4nlsl","lion","no"," ","stimuli/organized/STATE/USED/Slaptop1.JPG","","","","","memory","false","state","false","","",""
"","null","html-keyboard-response","114","2.0.0","242473","pzt0km4nlsl","lion","no","null","<div style=""font-size:60px; color:red;"">+</div>","","","","","","","","","","",""
"","2553","image-keyboard-response","115","2.0.0","245475","pzt0km4nlsl","lion","no"," ","stimuli/organized/EXEMPLAR/USED/Ecabinet1.jpg","","","","","memory","false","exemplar","false","","",""
"","null","html-keyboard-response","116","2.0.0","246478","pzt0km4nlsl","lion","no","null","<div style=""font-size:60px; color:red;"">+</div>","","","","","","","","","","",""
"","null","image-keyboard-response","117","2.0.0","249479","pzt0km4nlsl","lion","no","null","stimuli/organized/STATE/USED/Sbreadbox2.JPG","","","","","memory","false","state","true","","",""
"","null","html-keyboard-response","118","2.0.0","250480","pzt0km4nlsl","lion","no","null","<div style=""font-size:60px; color:black;"">+</div>","","","","","","","","","","",""
"","2922","image-keyboard-response","119","2.0.0","253482","pzt0km4nlsl","lion","no"," ","stimuli/organized/EXEMPLAR/USED/Ebasket1.jpg","","","","","memory","false","exemplar","false","","",""
"","null","html-keyboard-response","120","2.0.0","254484","pzt0km4nlsl","lion","no","null","<div style=""font-size:60px; color:red;"">+</div>","","","","","","","","","","",""
"","725","image-keyboard-response","121","2.0.0","257487","pzt0km4nlsl","lion","no"," ","stimuli/organized/STATE/USED/Sbelt2.jpg","","","","","memory","false","state","false","","",""
"","null","html-keyboard-response","122","2.0.0","258488","pzt0km4nlsl","lion","no","null","<div style=""font-size:60px; color:red;"">+</div>","","","","","","","","","","",""
"","1017","image-keyboard-response","123","2.0.0","261490","pzt0km4nlsl","lion","no"," ","stimuli/organized/STATE/USED/Sabacus2.jpg","","","","","memory","true","state","true","","",""
"","null","html-keyboard-response","124","2.0.0","262491","pzt0km4nlsl","lion","no","null","<div style=""font-size:60px; color:green;"">+</div>","","","","","","","","","","",""
"","1118","image-keyboard-response","125","2.0.0","265494","pzt0km4nlsl","lion","no"," ","stimuli/organized/STATE/USED/Sfiretrucktoy2.jpg","","","","","memory","false","state","false","","",""
"","null","html-keyboard-response","126","2.0.0","266496","pzt0km4nlsl","lion","no","null","<div style=""font-size:60px; color:red;"">+</div>","","","","","","","","","","",""
"","null","image-keyboard-response","127","2.0.0","269498","pzt0km4nlsl","lion","no","null","stimuli/organized/STATE/USED/Scrayons2.jpg","","","","","memory","false","state","true","","",""
"","null","html-keyboard-response","128","2.0.0","270499","pzt0km4nlsl","lion","no","null","<div style=""font-size:60px; color:black;"">+</div>","","","","","","","","","","",""
"","null","image-keyboard-response","129","2.0.0","273501","pzt0km4nlsl","lion","no","null","stimuli/organized/STATE/USED/Sgrinder2.jpg","","","","","memory","false","state","true","","",""
"","null","html-keyboard-response","130","2.0.0","274504","pzt0km4nlsl","lion","no","null","<div style=""font-size:60px; color:black;"">+</div>","","","","","","","","","","",""
"","1546","image-keyboard-response","131","2.0.0","277507","pzt0km4nlsl","lion","no"," ","stimuli/organized/Novel pairs (tested)/n20acarseat.jpg","","","","","memory","false","novel","false","","",""
"","null","html-keyboard-response","132","2.0.0","278509","pzt0km4nlsl","lion","no","null","<div style=""font-size:60px; color:red;"">+</div>","","","","","","","","","","",""
"","null","image-keyboard-response","133","2.0.0","281511","pzt0km4nlsl","lion","no","null","stimuli/organized/Novel pairs (tested)/n14bgolfball.jpg","","","","","memory","false","novel","true","","",""
"","null","html-keyboard-response","134","2.0.0","282513","pzt0km4nlsl","lion","no","null","<div style=""font-size:60px; color:black;"">+</div>","","","","","","","","","","",""
"","null","image-keyboard-response","135","2.0.0","285516","pzt0km4nlsl","lion","no","null","stimuli/organized/Novel pairs (tested)/n15aspiderweb.jpg","","","","","memory","false","novel","true","","",""
"","null","html-keyboard-response","136","2.0.0","286518","pzt0km4nlsl","lion","no","null","<div style=""font-size:60px; color:black;"">+</div>","","","","","","","","","","",""
"","1388","image-keyboard-response","137","2.0.0","289521","pzt0km4nlsl","lion","no"," ","stimuli/organized/EXEMPLAR/USED/Efan2.jpg","","","","","memory","false","exemplar","false","","",""
"","null","html-keyboard-response","138","2.0.0","290523","pzt0km4nlsl","lion","no","null","<div style=""font-size:60px; color:red;"">+</div>","","","","","","","","","","",""
"","687","image-keyboard-response","139","2.0.0","293526","pzt0km4nlsl","lion","no"," ","stimuli/organized/Novel pairs (tested)/n18bsnail.jpg","","","","","memory","false","novel","false","","",""
"","null","html-keyboard-response","140","2.0.0","294528","pzt0km4nlsl","lion","no","null","<div style=""font-size:60px; color:red;"">+</div>","","","","","","","","","","",""
"","null","image-keyboard-response","141","2.0.0","297532","pzt0km4nlsl","lion","no","null","stimuli/organized/Novel pairs (tested)/n12bwatch.jpg","","","","","memory","false","novel","true","","",""
"","null","html-keyboard-response","142","2.0.0","298534","pzt0km4nlsl","lion","no","null","<div style=""font-size:60px; color:black;"">+</div>","","","","","","","","","","",""
"","1028","image-keyboard-response","143","2.0.0","301536","pzt0km4nlsl","lion","no"," ","stimuli/organized/STATE/USED/Sbooks1.JPG","","","","","memory","false","state","false","","",""
"","null","html-keyboard-response","144","2.0.0","302539","pzt0km4nlsl","lion","no","null","<div style=""font-size:60px; color:red;"">+</div>","","","","","","","","","","",""
"","1351","image-keyboard-response","145","2.0.0","305541","pzt0km4nlsl","lion","no"," ","stimuli/organized/EXEMPLAR/USED/Egame1.jpg","","","","","memory","false","exemplar","false","","",""
"","null","html-keyboard-response","146","2.0.0","306544","pzt0km4nlsl","lion","no","null","<div style=""font-size:60px; color:red;"">+</div>","","","","","","","","","","",""
"","null","image-keyboard-response","147","2.0.0","309546","pzt0km4nlsl","lion","no","null","stimuli/organized/EXEMPLAR/USED/Egrapes1.jpg","","","","","memory","false","exemplar","true","","",""
"","null","html-keyboard-response","148","2.0.0","310547","pzt0km4nlsl","lion","no","null","<div style=""font-size:60px; color:black;"">+</div>","","","","","","","","","","",""
"","null","image-keyboard-response","149","2.0.0","313549","pzt0km4nlsl","lion","no","null","stimuli/organized/STATE/USED/Sjuiceglass1.JPG","","","","","memory","false","state","true","","",""
"","null","html-keyboard-response","150","2.0.0","314551","pzt0km4nlsl","lion","no","null","<div style=""font-size:60px; color:black;"">+</div>","","","","","","","","","","",""
"","null","image-keyboard-response","151","2.0.0","317554","pzt0km4nlsl","lion","no","null","stimuli/organized/EXEMPLAR/USED/Echocolatebar1.jpg","","","","","memory","false","exemplar","true","","",""
"","null","html-keyboard-response","152","2.0.0","318556","pzt0km4nlsl","lion","no","null","<div style=""font-size:60px; color:black;"">+</div>","","","","","","","","","","",""
"","1597","image-keyboard-response","153","2.0.0","321559","pzt0km4nlsl","lion","no"," ","stimuli/organized/EXEMPLAR/USED/Ecalculator1.jpg","","","","","memory","false","exemplar","false","","",""
"","null","html-keyboard-response","154","2.0.0","322560","pzt0km4nlsl","lion","no","null","<div style=""font-size:60px; color:red;"">+</div>","","","","","","","","","","",""
"","1705","image-keyboard-response","155","2.0.0","325563","pzt0km4nlsl","lion","no"," ","stimuli/organized/STATE/USED/Sbreadbox2.JPG","","","","","memory","true","state","true","","",""
"","null","html-keyboard-response","156","2.0.0","326565","pzt0km4nlsl","lion","no","null","<div style=""font-size:60px; color:green;"">+</div>","","","","","","","","","","",""
"","909","image-keyboard-response","157","2.0.0","329566","pzt0km4nlsl","lion","no"," ","stimuli/organized/EXEMPLAR/USED/Ebicycle1.jpg","","","","","memory","true","exemplar","true","","",""
"","null","html-keyboard-response","158","2.0.0","330568","pzt0km4nlsl","lion","no","null","<div style=""font-size:60px; color:green;"">+</div>","","","","","","","","","","",""
"","null","image-keyboard-response","159","2.0.0","333570","pzt0km4nlsl","lion","no","null","stimuli/organized/EXEMPLAR/USED/Econe1.jpg","","","","","memory","false","exemplar","true","","",""
"","null","html-keyboard-response","160","2.0.0","334573","pzt0km4nlsl","lion","no","null","<div style=""font-size:60px; color:black;"">+</div>","","","","","","","","","","",""
"","1053","image-keyboard-response","161","2.0.0","337576","pzt0km4nlsl","lion","no"," ","stimuli/organized/EXEMPLAR/USED/Eglobe1.jpg","","","","","memory","false","exemplar","false","","",""
"","null","html-keyboard-response","162","2.0.0","338577","pzt0km4nlsl","lion","no","null","<div style=""font-size:60px; color:red;"">+</div>","","","","","","","","","","",""
"","2064","image-keyboard-response","163","2.0.0","341580","pzt0km4nlsl","lion","no"," ","stimuli/organized/EXEMPLAR/USED/Ebracelet1.jpg","","","","","memory","false","exemplar","false","","",""
"","null","html-keyboard-response","164","2.0.0","342582","pzt0km4nlsl","lion","no","null","<div style=""font-size:60px; color:red;"">+</div>","","","","","","","","","","",""
"","780","image-keyboard-response","165","2.0.0","345585","pzt0km4nlsl","lion","no"," ","stimuli/organized/EXEMPLAR/USED/Ebracelet1.jpg","","","","","memory","true","exemplar","true","","",""
"","1878","html-button-response","166","2.0.0","347464","pzt0km4nlsl","lion","no","0","<p>You have completed the study phase.</p><p>Take a short break. Press the button below when you are ready to continue.</p>","","","","","","","","","","",""
"","4730","html-keyboard-response","167","2.0.0","352195","pzt0km4nlsl","lion","no"," ","<p>You will now be shown pairs of images.</p><p>Select the image you remember seeing during the study phase.</p><p>Focus on accuracy, not speed.</p><p>Press any key to begin.</p>","","","","","","","","","","",""
"","1786","html-button-response","168","2.0.0","353982","pzt0km4nlsl","lion","no","0","Which of these items did you see earlier?","","","","","test","","novel","true","stimuli/organized/Novel pairs (tested)/n11abatteries.jpg","stimuli/organized/Novel pairs (tested)/n11bsock.jpg","0"
"","1383","html-button-response","169","2.0.0","355366","pzt0km4nlsl","lion","no","0","Which of these items did you see earlier?","","","","","test","","exemplar","true","stimuli/organized/EXEMPLAR/USED/Ecar1.jpg","stimuli/organized/EXEMPLAR/USED/Ecar2.jpg","0"
"","983","html-button-response","170","2.0.0","356350","pzt0km4nlsl","lion","no","1","Which of these items did you see earlier?","","","","","test","","novel","true","stimuli/organized/Novel pairs (tested)/n18bsnail.jpg","stimuli/organized/Novel pairs (tested)/n18apretzel.jpg","1"
"","1932","html-button-response","171","2.0.0","358283","pzt0km4nlsl","lion","no","0","Which of these items did you see earlier?","","","","","test","","exemplar","true","stimuli/organized/EXEMPLAR/USED/Echisel2.jpg","stimuli/organized/EXEMPLAR/USED/Echisel1.jpg","0"
"","966","html-button-response","172","2.0.0","359250","pzt0km4nlsl","lion","no","1","Which of these items did you see earlier?","","","","","test","","state","true","stimuli/organized/STATE/USED/Sdonut2.jpg","stimuli/organized/STATE/USED/Sdonut1.jpg","1"
"","1182","html-button-response","173","2.0.0","360433","pzt0km4nlsl","lion","no","0","Which of these items did you see earlier?","","","","","test","","state","true","stimuli/organized/STATE/USED/Sjuiceglass1.JPG","stimuli/organized/STATE/USED/Sjuiceglass2.JPG","0"
"","1316","html-button-response","174","2.0.0","361750","pzt0km4nlsl","lion","no","1","Which of these items did you see earlier?","","","","","test","","exemplar","true","stimuli/organized/EXEMPLAR/USED/Ecamera1.jpg","stimuli/organized/EXEMPLAR/USED/Ecamera2.jpg","1"
"","1249","html-button-response","175","2.0.0","363000","pzt0km4nlsl","lion","no","1","Which of these items did you see earlier?","","","","","test","","state","true","stimuli/organized/STATE/USED/Sbooks1.JPG","stimuli/organized/STATE/USED/Sbooks2.JPG","1"
"","1367","html-button-response","176","2.0.0","364368","pzt0km4nlsl","lion","no","0","Which of these items did you see earlier?","","","","","test","","state","true","stimuli/organized/STATE/USED/Sdresser2.jpg","stimuli/organized/STATE/USED/Sdresser1.jpg","0"
"","1482","html-button-response","177","2.0.0","365851","pzt0km4nlsl","lion","no","0","Which of these items did you see earlier?","","","","","test","","state","false","stimuli/organized/STATE/USED/Sbureau1.JPG","stimuli/organized/STATE/USED/Sbureau2.JPG","1"
"","2349","html-button-response","178","2.0.0","368201","pzt0km4nlsl","lion","no","0","Which of these items did you see earlier?","","","","","test","","exemplar","true","stimuli/organized/EXEMPLAR/USED/Efan2.jpg","stimuli/organized/EXEMPLAR/USED/Efan1.jpg","0"
"","766","html-button-response","179","2.0.0","368968","pzt0km4nlsl","lion","no","0","Which of these items did you see earlier?","","","","","test","","novel","true","stimuli/organized/Novel pairs (tested)/n14bgolfball.jpg","stimuli/organized/Novel pairs (tested)/n14acigarette.jpg","0"
"","1183","html-button-response","180","2.0.0","370152","pzt0km4nlsl","lion","no","0","Which of these items did you see earlier?","","","","","test","","exemplar","true","stimuli/organized/EXEMPLAR/USED/Egame1.jpg","stimuli/organized/EXEMPLAR/USED/Egame2.jpg","0"
"","1266","html-button-response","181","2.0.0","371419","pzt0km4nlsl","lion","no","0","Which of these items did you see earlier?","","","","","test","","state","true","stimuli/organized/STATE/USED/Sdryer1.jpg","stimuli/organized/STATE/USED/Sdryer2.jpg","0"
"","1149","html-button-response","182","2.0.0","372569","pzt0km4nlsl","lion","no","1","Which of these items did you see earlier?","","","","","test","","state","true","stimuli/organized/STATE/USED/Sbreadbox2.JPG","stimuli/organized/STATE/USED/Sbreadbox1.JPG","1"
"","1317","html-button-response","183","2.0.0","373886","pzt0km4nlsl","lion","no","0","Which of these items did you see earlier?","","","","","test","","exemplar","true","stimuli/organized/EXEMPLAR/USED/Ecabinet1.jpg","stimuli/organized/EXEMPLAR/USED/Ecabinet2.jpg","0"
"","1383","html-button-response","184","2.0.0","375270","pzt0km4nlsl","lion","no","0","Which of these items did you see earlier?","","","","","test","","novel","true","stimuli/organized/Novel pairs (tested)/n13bdustpan.jpg","stimuli/organized/Novel pairs (tested)/n13ablueberries.jpg","0"
"","1315","html-button-response","185","2.0.0","376586","pzt0km4nlsl","lion","no","1","Which of these items did you see earlier?","","","","","test","","exemplar","false","stimuli/organized/EXEMPLAR/USED/Eglobe1.jpg","stimuli/organized/EXEMPLAR/USED/Eglobe2.jpg","0"
"","3066","html-button-response","186","2.0.0","379654","pzt0km4nlsl","lion","no","0","Which of these items did you see earlier?","","","","","test","","novel","true","stimuli/organized/Novel pairs (tested)/n17avendingmachine.jpg","stimuli/organized/Novel pairs (tested)/n17bweddingdress.jpg","0"
"","1166","html-button-response","187","2.0.0","380821","pzt0km4nlsl","lion","no","0","Which of these items did you see earlier?","","","","","test","","exemplar","true","stimuli/organized/EXEMPLAR/USED/Eframe2.jpg","stimuli/organized/EXEMPLAR/USED/Eframe1.jpg","0"
"","1799","html-button-response","188","2.0.0","382621","pzt0km4nlsl","lion","no","1","Which of these items did you see earlier?","","","","","test","","state","true","stimuli/organized/STATE/USED/Seggs1.jpg","stimuli/organized/STATE/USED/Seggs2.jpg","1"
"","1432","html-button-response","189","2.0.0","384055","pzt0km4nlsl","lion","no","1","Which of these items did you see earlier?","","","","","test","","state","true","stimuli/organized/STATE/USED/Slaptop1.JPG","stimuli/organized/STATE/USED/Slaptop2.JPG","1"
"","1049","html-button-response","190","2.0.0","385105","pzt0km4nlsl","lion","no","0","Which of these items did you see earlier?","","","","","test","","state","false","stimuli/organized/STATE/USED/Sbabytoy2.JPG","stimuli/organized/STATE/USED/Sbabytoy1.JPG","1"
"","1066","html-button-response","191","2.0.0","386172","pzt0km4nlsl","lion","no","1","Which of these items did you see earlier?","","","","","test","","exemplar","true","stimuli/organized/EXEMPLAR/USED/Edispenser1.jpg","stimuli/organized/EXEMPLAR/USED/Edispenser2.jpg","1"
"","966","html-button-response","192","2.0.0","387139","pzt0km4nlsl","lion","no","0","Which of these items did you see earlier?","","","","","test","","state","true","stimuli/organized/STATE/USED/Sbriefcase1.jpg","stimuli/organized/STATE/USED/Sbriefcase2.jpg","0"
"","1283","html-button-response","193","2.0.0","388422","pzt0km4nlsl","lion","no","0","Which of these items did you see earlier?","","","","","test","","novel","true","stimuli/organized/Novel pairs (tested)/n02bsafetypin.jpg","stimuli/organized/Novel pairs (tested)/n02aaxe.jpg","0"
"","1266","html-button-response","194","2.0.0","389689","pzt0km4nlsl","lion","no","0","Which of these items did you see earlier?","","","","","test","","state","false","stimuli/organized/STATE/USED/Sfiretrucktoy2.jpg","stimuli/organized/STATE/USED/Sfiretrucktoy1.jpg","1"
"","999","html-button-response","195","2.0.0","390689","pzt0km4nlsl","lion","no","0","Which of these items did you see earlier?","","","","","test","","exemplar","true","stimuli/organized/EXEMPLAR/USED/Echocolatebar1.jpg","stimuli/organized/EXEMPLAR/USED/Echocolatebar2.jpg","0"
"","1016","html-button-response","196","2.0.0","391706","pzt0km4nlsl","lion","no","1","Which of these items did you see earlier?","","","","","test","","exemplar","false","stimuli/organized/EXEMPLAR/USED/Egoggles1.jpg","stimuli/organized/EXEMPLAR/USED/Egoggles2.jpg","0"
"","1650","html-button-response","197","2.0.0","393357","pzt0km4nlsl","lion","no","0","Which of these items did you see earlier?","","","","","test","","state","false","stimuli/organized/STATE/USED/Sgiftbag1.jpg","stimuli/organized/STATE/USED/Sgiftbag2.jpg","1"
"","1466","html-button-response","198","2.0.0","394823","pzt0km4nlsl","lion","no","1","Which of these items did you see earlier?","","","","","test","","state","true","stimuli/organized/STATE/USED/Spotpan2.JPG","stimuli/organized/STATE/USED/Spotpan1.JPG","1"
"","850","html-button-response","199","2.0.0","395674","pzt0km4nlsl","lion","no","0","Which of these items did you see earlier?","","","","","test","","exemplar","true","stimuli/organized/EXEMPLAR/USED/Ebicycle1.jpg","stimuli/organized/EXEMPLAR/USED/Ebicycle2.jpg","0"
"","815","html-button-response","200","2.0.0","396490","pzt0km4nlsl","lion","no","0","Which of these items did you see earlier?","","","","","test","","exemplar","true","stimuli/organized/EXEMPLAR/USED/Ebracelet1.jpg","stimuli/organized/EXEMPLAR/USED/Ebracelet2.jpg","0"
"","1266","html-button-response","201","2.0.0","397757","pzt0km4nlsl","lion","no","0","Which of these items did you see earlier?","","","","","test","","state","false","stimuli/organized/STATE/USED/Scrayons2.jpg","stimuli/organized/STATE/USED/Scrayons1.jpg","1"
"","1066","html-button-response","202","2.0.0","398824","pzt0km4nlsl","lion","no","0","Which of these items did you see earlier?","","","","","test","","novel","true","stimuli/organized/Novel pairs (tested)/n01aladybug.jpg","stimuli/organized/Novel pairs (tested)/n01bcoin.jpg","0"
"","1132","html-button-response","203","2.0.0","399958","pzt0km4nlsl","lion","no","1","Which of these items did you see earlier?","","","","","test","","state","true","stimuli/organized/STATE/USED/Scookies2.JPG","stimuli/organized/STATE/USED/Scookies1.JPG","1"
"","999","html-button-response","204","2.0.0","400958","pzt0km4nlsl","lion","no","1","Which of these items did you see earlier?","","","","","test","","novel","true","stimuli/organized/Novel pairs (tested)/n12bwatch.jpg","stimuli/organized/Novel pairs (tested)/n12atelescope.jpg","1"
"","1082","html-button-response","205","2.0.0","402041","pzt0km4nlsl","lion","no","0","Which of these items did you see earlier?","","","","","test","","state","true","stimuli/organized/STATE/USED/Sdrum2.jpg","stimuli/organized/STATE/USED/Sdrum1.jpg","0"
"","1132","html-button-response","206","2.0.0","403175","pzt0km4nlsl","lion","no","1","Which of these items did you see earlier?","","","","","test","","novel","true","stimuli/organized/Novel pairs (tested)/n09bsaddle.jpg","stimuli/organized/Novel pairs (tested)/n09apenguin.jpg","1"
"","1049","html-button-response","207","2.0.0","404225","pzt0km4nlsl","lion","no","0","Which of these items did you see earlier?","","","","","test","","state","false","stimuli/organized/STATE/USED/Scontainer2.JPG","stimuli/organized/STATE/USED/Scontainer1.JPG","1"
"","1399","html-button-response","208","2.0.0","405625","pzt0km4nlsl","lion","no","0","Which of these items did you see earlier?","","","","","test","","state","true","stimuli/organized/STATE/USED/Schinesefoodbox1.jpg","stimuli/organized/STATE/USED/Schinesefoodbox2.jpg","0"
"","749","html-button-response","209","2.0.0","406375","pzt0km4nlsl","lion","no","0","Which of these items did you see earlier?","","","","","test","","exemplar","true","stimuli/organized/EXEMPLAR/USED/Egrapes1.jpg","stimuli/organized/EXEMPLAR/USED/Egrapes2.jpg","0"
"","2050","html-button-response","210","2.0.0","408426","pzt0km4nlsl","lion","no","1","Which of these items did you see earlier?","","","","","test","","exemplar","false","stimuli/organized/EXEMPLAR/USED/Econe1.jpg","stimuli/organized/EXEMPLAR/USED/Econe2.jpg","0"
"","1116","html-button-response","211","2.0.0","409542","pzt0km4nlsl","lion","no","0","Which of these items did you see earlier?","","","","","test","","state","true","stimuli/organized/STATE/USED/Sbox1.jpg","stimuli/organized/STATE/USED/Sbox2.jpg","0"
"","1432","html-button-response","212","2.0.0","410975","pzt0km4nlsl","lion","no","1","Which of these items did you see earlier?","","","","","test","","exemplar","true","stimuli/organized/EXEMPLAR/USED/Ebasket1.jpg","stimuli/organized/EXEMPLAR/USED/Ebasket2.jpg","1"
"","1433","html-button-response","213","2.0.0","412410","pzt0km4nlsl","lion","no","0","Which of these items did you see earlier?","","","","","test","","state","false","stimuli/organized/STATE/USED/Sdie1.jpg","stimuli/organized/STATE/USED/Sdie2.jpg","1"
"","1550","html-button-response","214","2.0.0","413961","pzt0km4nlsl","lion","no","1","Which of these items did you see earlier?","","","","","test","","novel","true","stimuli/organized/Novel pairs (tested)/n15aspiderweb.jpg","stimuli/organized/Novel pairs (tested)/n15bfootball.jpg","1"
"","2248","html-button-response","215","2.0.0","416210","pzt0km4nlsl","lion","no","1","Which of these items did you see earlier?","","","","","test","","novel","true","stimuli/organized/Novel pairs (tested)/n05abarrel.jpg","stimuli/organized/Novel pairs (tested)/n05bcactus.jpg","1"
"","1482","html-button-response","216","2.0.0","417694","pzt0km4nlsl","lion","no","1","Which of these items did you see earlier?","","","","","test","","state","true","stimuli/organized/STATE/USED/Shairbrush1.jpg","stimuli/organized/STATE/USED/Shairbrush2.jpg","1"
"","2400","html-button-response","217","2.0.0","420095","pzt0km4nlsl","lion","no","1","Which of these items did you see earlier?","","","","","test","","state","true","stimuli/organized/STATE/USED/Sbrushes2.jpg","stimuli/organized/STATE/USED/Sbrushes1.jpg","1"
"","1099","html-button-response","218","2.0.0","421195","pzt0km4nlsl","lion","no","0","Which of these items did you see earlier?","","","","","test","","state","true","stimuli/organized/STATE/USED/Sbottles2.JPG","stimuli/organized/STATE/USED/Sbottles1.JPG","0"
"","1166","html-button-response","219","2.0.0","422362","pzt0km4nlsl","lion","no","1","Which of these items did you see earlier?","","","","","test","","state","true","stimuli/organized/STATE/USED/Sapplesgreenbasket2.jpg","stimuli/organized/STATE/USED/Sapplesgreenbasket1.jpg","1"
"","1732","html-button-response","220","2.0.0","424095","pzt0km4nlsl","lion","no","0","Which of these items did you see earlier?","","","","","test","","state","true","stimuli/organized/STATE/USED/Scoffeemaker2.JPG","stimuli/organized/STATE/USED/Scoffeemaker1.JPG","0"
"","1132","html-button-response","221","2.0.0","425228","pzt0km4nlsl","lion","no","1","Which of these items did you see earlier?","","","","","test","","state","true","stimuli/organized/STATE/USED/Sgiftbox1.jpg","stimuli/organized/STATE/USED/Sgiftbox2.jpg","1"
"","1099","html-button-response","222","2.0.0","426329","pzt0km4nlsl","lion","no","1","Which of these items did you see earlier?","","","","","test","","novel","true","stimuli/organized/Novel pairs (tested)/n06blipstick.jpg","stimuli/organized/Novel pairs (tested)/n06acane.jpg","1"
"","1583","html-button-response","223","2.0.0","427913","pzt0km4nlsl","lion","no","0","Which of these items did you see earlier?","","","","","test","","exemplar","false","stimuli/organized/EXEMPLAR/USED/Efeather1.jpg","stimuli/organized/EXEMPLAR/USED/Efeather2.jpg","1"
"","882","html-button-response","224","2.0.0","428796","pzt0km4nlsl","lion","no","1","Which of these items did you see earlier?","","","","","test","","state","false","stimuli/organized/STATE/USED/Spie2.JPG","stimuli/organized/STATE/USED/Spie1.JPG","0"
"","1249","html-button-response","225","2.0.0","430047","pzt0km4nlsl","lion","no","1","Which of these items did you see earlier?","","","","","test","","exemplar","true","stimuli/organized/EXEMPLAR/USED/Ecalculator1.jpg","stimuli/organized/EXEMPLAR/USED/Ecalculator2.jpg","1"
"","2182","html-button-response","226","2.0.0","432230","pzt0km4nlsl","lion","no","1","Which of these items did you see earlier?","","","","","test","","novel","true","stimuli/organized/Novel pairs (tested)/n10bturkey.jpg","stimuli/organized/Novel pairs (tested)/n10awindmill.jpg","1"
"","1099","html-button-response","227","2.0.0","433330","pzt0km4nlsl","lion","no","0","Which of these items did you see earlier?","","","","","test","","novel","false","stimuli/organized/Novel pairs (tested)/n07bswimmingpool.jpg","stimuli/organized/Novel pairs (tested)/n07apotato.jpg","1"
"","1065","html-button-response","228","2.0.0","434396","pzt0km4nlsl","lion","no","1","Which of these items did you see earlier?","","","","","test","","state","false","stimuli/organized/STATE/USED/Sabacus2.jpg","stimuli/organized/STATE/USED/Sabacus1.jpg","0"
"","1766","html-button-response","229","2.0.0","436163","pzt0km4nlsl","lion","no","0","Which of these items did you see earlier?","","","","","test","","state","false","stimuli/organized/STATE/USED/Sdishes1.JPG","stimuli/organized/STATE/USED/Sdishes2.JPG","1"
"","1500","html-button-response","230","2.0.0","437664","pzt0km4nlsl","lion","no","0","Which of these items did you see earlier?","","","","","test","","novel","true","stimuli/organized/Novel pairs (tested)/n03acamel.jpg","stimuli/organized/Novel pairs (tested)/n03bbagel.jpg","0"
"","2349","html-button-response","231","2.0.0","440014","pzt0km4nlsl","lion","no","0","Which of these items did you see earlier?","","","","","test","","novel","true","stimuli/organized/Novel pairs (tested)/n19bhairbrush.jpg","stimuli/organized/Novel pairs (tested)/n19apickle.jpg","0"
"","1200","html-button-response","232","2.0.0","441215","pzt0km4nlsl","lion","no","1","Which of these items did you see earlier?","","","","","test","","state","false","stimuli/organized/STATE/USED/Sphone1.JPG","stimuli/organized/STATE/USED/Sphone2.JPG","0"
"","981","html-button-response","233","2.0.0","442197","pzt0km4nlsl","lion","no","0","Which of these items did you see earlier?","","","","","test","","novel","true","stimuli/organized/Novel pairs (tested)/n20acarseat.jpg","stimuli/organized/Novel pairs (tested)/n20bshelf.jpg","0"
"","1299","html-button-response","234","2.0.0","443498","pzt0km4nlsl","lion","no","0","Which of these items did you see earlier?","","","","","test","","state","false","stimuli/organized/STATE/USED/Sflask2.jpg","stimuli/organized/STATE/USED/Sflask1.jpg","1"
"","1149","html-button-response","235","2.0.0","444648","pzt0km4nlsl","lion","no","0","Which of these items did you see earlier?","","","","","test","","state","true","stimuli/organized/STATE/USED/Sscanner1.JPG","stimuli/organized/STATE/USED/Sscanner2.JPG","0"
"","1001","html-button-response","236","2.0.0","445649","pzt0km4nlsl","lion","no","1","Which of these items did you see earlier?","","","","","test","","exemplar","true","stimuli/organized/EXEMPLAR/USED/Ebread2.jpg","stimuli/organized/EXEMPLAR/USED/Ebread1.jpg","1"
"","2432","html-button-response","237","2.0.0","448082","pzt0km4nlsl","lion","no","1","Which of these items did you see earlier?","","","","","test","","novel","true","stimuli/organized/Novel pairs (tested)/n04bbandaid.jpg","stimuli/organized/Novel pairs (tested)/n04ayarn.jpg","1"
"","1650","html-button-response","238","2.0.0","449733","pzt0km4nlsl","lion","no","1","Which of these items did you see earlier?","","","","","test","","novel","true","stimuli/organized/Novel pairs (tested)/n16bhammer.jpg","stimuli/organized/Novel pairs (tested)/n16abananas.jpg","1"
"","1566","html-button-response","239","2.0.0","451300","pzt0km4nlsl","lion","no","1","Which of these items did you see earlier?","","","","","test","","state","true","stimuli/organized/STATE/USED/Sbelt2.jpg","stimuli/organized/STATE/USED/Sbelt1.jpg","1"
"","1333","html-button-response","240","2.0.0","452634","pzt0km4nlsl","lion","no","0","Which of these items did you see earlier?","","","","","test","","novel","true","stimuli/organized/Novel pairs (tested)/n08bpaperclip.jpg","stimuli/organized/Novel pairs (tested)/n08aoven.jpg","0"
"","932","html-button-response","241","2.0.0","453567","pzt0km4nlsl","lion","no","1","Which of these items did you see earlier?","","","","","test","","state","false","stimuli/organized/STATE/USED/Sscissors2.JPG","stimuli/organized/STATE/USED/Sscissors1.JPG","0"
"","949","html-button-response","242","2.0.0","454517","pzt0km4nlsl","lion","no","0","Which of these items did you see earlier?","","","","","test","","exemplar","true","stimuli/organized/EXEMPLAR/USED/Ebell2.jpg","stimuli/organized/EXEMPLAR/USED/Ebell1.jpg","0"
"","1300","html-button-response","243","2.0.0","455817","pzt0km4nlsl","lion","no","0","Which of these items did you see earlier?","","","","","test","","state","false","stimuli/organized/STATE/USED/Sgrinder2.jpg","stimuli/organized/STATE/USED/Sgrinder1.jpg","1"
"","9917","survey-html-form","244","2.0.0","465738","pzt0km4nlsl","lion","no","{""age"":""22"",""gender"":""female"",""memory_experiment_experience"":""yes""}","","","","","","","","","","","",""
"","5266","survey-text","245","2.0.0","471005","pzt0km4nlsl","lion","no","{""task_guess"":""recall""}","","","","","","","","","","","",""
"","2016","survey-text","246","2.0.0","473022","pzt0km4nlsl","lion","no","{""technical_issues_question"":""no""}","","","","","","","","","","","",""
